avg_acc_x_0,avg_acc_y_0,avg_acc_z_0,avg_acc_x_1,avg_acc_y_1,avg_acc_z_1,avg_acc_x_2,avg_acc_y_2,avg_acc_z_2,avg_acc_x_3,avg_acc_y_3,avg_acc_z_3,avg_acc_x_4,avg_acc_y_4,avg_acc_z_4,avg_acc_x_5,avg_acc_y_5,avg_acc_z_5,avg_acc_x_6,avg_acc_y_6,avg_acc_z_6,avg_acc_x_7,avg_acc_y_7,avg_acc_z_7,avg_acc_x_8,avg_acc_y_8,avg_acc_z_8,avg_acc_x_9,avg_acc_y_9,avg_acc_z_9,avg_gyro_x_0,avg_gyro_y_0,avg_gyro_z_0,avg_gyro_x_1,avg_gyro_y_1,avg_gyro_z_1,avg_gyro_x_2,avg_gyro_y_2,avg_gyro_z_2,avg_gyro_x_3,avg_gyro_y_3,avg_gyro_z_3,avg_gyro_x_4,avg_gyro_y_4,avg_gyro_z_4,avg_gyro_x_5,avg_gyro_y_5,avg_gyro_z_5,avg_gyro_x_6,avg_gyro_y_6,avg_gyro_z_6,avg_gyro_x_7,avg_gyro_y_7,avg_gyro_z_7,avg_gyro_x_8,avg_gyro_y_8,avg_gyro_z_8,avg_gyro_x_9,avg_gyro_y_9,avg_gyro_z_9,label
-8.535877514000001,-13.210686752099999,-107.33053417600001,1.8480916984000033,-15.9458014009,16.199236495999994,9.744275092199999,-2.685496187299999,57.63282451,-20.1244273403,-11.1190841204,-71.22748041169999,21.8404581542,15.136641537499997,67.7648848279,-18.3282442801,0.3969467007000006,-56.78778723600001,9.344274854099998,1.3183205123000001,9.958015812000003,0.008397043399999405,-6.4755721922,47.514503099,-22.679389141999998,-11.925954532500002,-71.4572515916,18.7122139449,1.7145040669000025,69.67862681800001,-4.7830127124,-7.8522116635999994,13.1521778098,-2.8213428914,-5.5367820733999995,11.5806446073,-1.5322803912,-9.7108540533,12.263017655,-4.2380908191,-5.7296531678000004,12.128007889,-1.2925342471,-9.900062942500002,12.230058671200002,-3.8916552426,-11.9830707513,12.927080153999999,-2.1211474811000004,-5.989174556,11.4932422633,-2.1631396978999997,-15.309974765800002,12.839189528999999,-3.309623963,-8.7132955527,11.770830154699999,-0.9495166809000001,-7.678871727100001,12.004961013299999,Cycling
-15.899999950399998,18.0625955104,-43.974808504600006,-5.631298161999999,-13.361068845299997,-6.2625945220000006,5.5702289822,12.758015298499998,62.3045791272,-26.025190662500002,-1.2832069154999999,-82.62366290219998,12.5160300251,-22.0190835477,50.624427328,-11.314503718500001,16.316030786600003,10.734351419199996,-9.8954195987,-19.3007635587,-52.01679308570001,16.0625952718,14.487022971600004,70.291603188,-24.951908230799994,1.2374047509999995,-60.282441326999994,4.039694786,-9.4015266181,11.859544747999996,-3.1641161427000006,-14.416664313999998,12.984453201999997,-2.2839892698,-5.5555808068,11.3396778112,-1.9558642869999994,-15.500648593400001,12.624101637999999,-3.4436572488,-10.8597797399,12.422929763099999,-3.1917041658,-5.662758633799999,12.2681446074,-2.5410693654000003,-15.109535409499998,13.438798904,-3.0610888954,-7.384194081600002,12.1651172629,-0.4387744792000001,-8.9745259297,11.7039356239,-3.8337939419000002,-11.091469194000002,13.1214160929,-2.9900439198999997,-4.9261863707,12.053300857199998,Cycling
5.425954532699999,2.528243873200001,54.785495383,-25.941984368,-6.4763359539,-77.679387843,7.367939054300001,-18.5732826516,58.02595480599998,-11.961068208100002,2.0480914824999976,1.1458030810000026,-8.50076332,-23.067938633399997,-42.345038601,20.227480983,12.373282576799998,70.30534296100001,-21.6709920887,5.152672363300001,-52.8694661042,-2.170228385,-9.362595277299999,-5.1183193310000075,8.5877863654,4.928243876199995,67.28549518399998,-31.502289200599996,-18.910686945399995,-70.91221275000001,-2.2947313994000007,-15.610023594799998,13.234209060799998,-2.9053271719,-15.420570470400003,12.422685620999998,-0.42412601270000005,-9.7892231949,12.037919996499998,-0.2876514233,-9.3304829567,11.928789138700001,-3.5676807045000003,-5.773842617399999,12.4409961697,-1.3364795633999997,-5.7889792421,11.0386524202,-3.0259326991999997,-14.4422991754,13.122148514,-3.6765673516999997,-7.651039695500001,11.9795703894,-1.6846240319999999,-15.116859626300002,13.158037185000001,-3.111626023,-8.1454244571,12.194902418499998,Cycling
8.4595417741,-8.757251467,31.03511581,-5.2267174263000005,9.377861931300007,35.419847589899994,-14.3557248584,-14.1503818738,-57.49923611700001,14.639694666699999,11.2557250982,70.1908387189,-25.4358780503,-2.1893124109000004,-81.09160347,22.112213874400002,13.711450523000002,78.703818034,-28.2335876212,-10.787786555200004,-73.163358787,18.451908826200004,-5.676336193499999,72.274044992,-25.323663998200008,-2.454961831400003,-66.1503821332,15.577099184100001,-19.2366416688,62.06641140399999,-2.8564990178999996,-5.667397213899999,11.560136795099998,-2.1792529642000007,-15.273597813,12.5198535917,-3.520805669,-8.198158837300003,11.983476638700001,-0.7996143311,-11.4989398934,12.3291797648,-3.0386279822,-9.227699757600002,12.416093825499999,-2.1455616004999998,-9.307045458100001,12.6104297646,-3.0698779706,-13.872963142400002,12.4781055453,-1.8628467502000003,-10.2362446751,12.904619216099999,-3.9946826785,-11.6402974129,12.57795906,-1.7022022186999997,-8.235268113500002,12.442461014,Cycling
-24.497709966700004,4.383206081099997,-42.822138825799996,14.1229006776,-6.8435115034,26.136642936999998,-13.2862592221,14.6503820426,-8.733587932999999,-5.170992444700003,-28.050381423999994,-10.170990939999994,-1.3595416076,5.038168165099998,41.27862586900001,-12.500763701500002,-3.2473282325,-44.309159288000004,21.125191091399998,24.237404154999997,61.608396268,-25.3099235053,-19.6870229482,-82.272518525,21.5809160704,3.5167939673000013,72.5732838147,-28.877099846700002,6.3236644026,-57.638168152999995,-2.8669971106,-11.9964982982,13.2542285923,-2.8860400947000002,-4.4755028633,12.181718828,-1.4309619910000004,-14.002845858399999,12.152421952000001,-3.527885759,-5.012367911,13.146806717199999,-1.3682178496,-14.0377580641,12.755693436,-2.6377490759000004,-5.1754539486999995,11.2835254673,-1.7307666966000004,-11.802650829600001,12.1277637487,-3.7422413320000003,-7.8458639086,12.482744216899999,-1.7710499375000002,-6.445473382399999,12.140459059999998,-4.2539601178,-11.6888812066,12.321367263099997,Cycling
9.849618053600002,-7.403816956200001,34.953434371,-3.4083971016999977,5.138167858300003,6.6366414949999974,-10.9541980036,-5.0717556943,-34.57251911,13.197709965799998,2.499236585,68.3396944086,-29.516030216000008,-23.7290079585,-80.6290073869,25.35114522,4.056488512700001,69.056491461,-18.178626299799998,-8.851144659400001,-41.67022866799999,8.541220950800001,3.3351146818000004,3.8854974850000006,7.857251550999999,12.370229035999998,39.648092268999996,-24.290839673,-8.4152673062,-68.459541889,-2.7307667017000004,-4.5973289488,11.8880176535,-2.1772999048000004,-13.4007952698,12.839677809,-3.4609912872999997,-4.9405906673,11.908525467,-2.376030308,-14.4891740806,12.101884842899999,-3.4390185713999997,-6.2997214313,12.473222732999998,-2.2024464011000005,-6.279457757,11.116289139,-4.3865284152,-12.581947614300002,13.324785232900002,-3.8862841902999996,-5.7259910520999995,11.200273514500001,-3.5825733274,-14.657875155999998,13.239091874,-3.5315479725000003,-11.246986766700001,12.308916091799999,Cycling
30.440457680400005,20.890839958700003,61.35114573499999,-28.572519207099997,-1.0893128860999994,-59.417557818,10.377098847599996,-13.586260162400004,39.647327984,-7.338167954799998,5.0694658277,15.48473320169999,-9.690839577,-27.9679386262,-45.0465650709,19.5206104265,5.278624917700002,70.79160272300001,-29.6671756734,0.755724429899999,-61.15801467,6.780152893000002,-14.9213737837,2.0748102210000114,12.8572520315,5.844274520000002,60.49236674829999,-24.0778626446,-8.961831520899999,-77.86259560250001,-1.5664600402000002,-8.211098289099999,11.8736133566,-3.3748096532999994,-14.980140781199998,12.922441484,-1.3252491185,-7.945473284300002,11.5672168742,-4.637016630300001,-14.333412360699999,12.6912403101,-4.568901353999999,-7.386879539000003,13.259111405199999,-0.6455615609,-11.575844186000001,12.077470779199999,-4.6089404588,-14.844642830600003,12.947832107299998,-3.1436084117,-5.324379632400001,11.9490528108,-0.979301825,-9.111244672800002,11.9239063268,-5.1677782902,-10.166908738699998,13.0025196078,Cycling
16.322137544399997,8.3236640937,50.388550375,-9.777862453400001,-0.7847327945999968,1.986259081999998,-9.400763130900003,-17.9541985639,-40.441221034,22.067175769200002,5.080915827100002,73.3374050656,-23.9488551142,-3.5198474894000014,-66.02977180599999,4.969465732000001,-8.6267173534,10.444274905000011,4.1335881719,9.4702291913,58.19465636699999,-25.372518753199998,-0.7893130186000021,-80.873282432,13.226717327900001,-7.734351205699999,38.393894187,0.4290080077999988,-12.416031003199999,28.60458029900001,-1.9463428259000004,-5.619057366,11.3899707802,-4.696342790100001,-13.341469002100002,12.887041091999999,-3.4116748483,-5.1505515997,11.638750075499999,-0.6841358064999999,-12.391517922100002,12.649980545099998,-5.4380419675,-13.104652692000002,13.826738357,-2.7637255874999993,-5.3717429158000005,11.3382129666,-2.7251514346,-14.6669084516,12.328691483,-3.1406788535,-15.136634920300002,12.7498340596,-2.5757373251999995,-5.1581198659,11.8904590601,-1.1314014762,-11.996254347,11.927080153099999,Cycling
-16.781679987,-18.299236640599997,-64.357250211,23.3343512544,12.6412218559,62.029009535,-16.227480625,-4.874045849899998,-22.305343536399995,-4.0946564666,-13.9183206192,-26.5648852277,17.8656489374,12.464885173599999,70.81144957490001,-24.914503384600003,-2.857251453499996,-68.19313011699998,5.454197884000003,-6.6229007712999985,17.911449048,9.663358783400001,4.2129767414,50.880152894000005,-20.855725667899996,-6.090076159799997,-77.94198523100002,11.29770937,2.9992363219,46.836640069,-3.5640185333000005,-5.572914884299999,11.9707813261,-0.6704639373999999,-9.512856004,11.4793262478,-4.998833000700001,-12.057533546999998,13.394365310999998,-3.0652392659,-5.061684322,11.917070389100001,-0.9480518161999999,-12.9000628456,12.1314258572,-4.6760790287,-13.086586285099997,12.886308671,-3.2991260050999998,-4.9557272914,12.0430469515,-1.7493213832000003,-14.045570660700003,12.653642654999999,-3.6497119427,-6.667885493599999,12.2617969518,-2.5801319423000004,-5.1700827574999995,11.7273731224,Cycling
-1.5992364879999983,3.7076333194,22.611451523000007,-17.8076335912,-16.543511296000002,-63.688549414,11.545038128300002,6.300763922200001,51.6435115254,-6.167938994999997,-4.167175511199998,5.933587442999991,-12.554198052199999,-2.0984735013000004,-61.568700684,23.4595417138,16.067175484699998,54.51068724999999,-12.859541892300005,12.067938888799999,-13.328245733000006,-12.726716996000002,-19.915267414699997,-40.881680297,21.391602897600002,19.032824307600002,61.21679450260001,-19.2091602314,-11.001526438200003,-22.279388569400016,-3.4932178705000005,-15.415199470699998,13.616289137999999,-4.4504931171,-10.383461474700002,12.982011794899998,-0.32622566290000005,-7.952065082800002,11.631425858,-4.2761768014,-14.907875153700001,13.140703201999997,-3.6001514104999996,-6.6742330533,11.843828200399999,-1.3616260895,-7.041176414800001,11.0974903108,-3.4932177187,-15.335121345899998,12.764238357,-2.829887712,-6.3082664457,11.6931934359,-0.2344287938000001,-9.992103958400001,11.9788379659,-4.7317431383,-13.6380999559,13.50667,Cycling
-7.275572539000001,-10.278626262200001,-30.290836978600005,14.146564813000001,3.9190845831000027,69.417557136,-23.104579712500005,1.1427481358000005,-57.72748068999999,-1.3923670757000017,-7.938168235099999,-0.4053433503000122,14.1419849403,11.580915701299997,61.41373977999999,-24.825954722800002,-0.7297713288999986,-79.60915909300002,6.1603053096000036,-14.082443046999998,25.102287577899993,7.493129657500002,10.788549162599997,54.171754546,-21.438931227500003,-6.3496187200000005,-72.24198388709999,10.378626156000001,2.3862596771000004,20.3129770333,-3.8396533427999997,-7.043373679400001,12.2991504674,-0.7756885178,-12.046791454800001,12.176591873799998,-3.5110400261000003,-15.461830330700002,13.381669999,-3.6587450925000007,-5.6178366634999986,11.2952442174,-1.0078663027,-11.7350238774,11.688554766200001,-3.4617236026000002,-8.5509420324,12.3699512486,-0.9309619589,-6.4398582432000016,11.6568164818,0.2499462634999999,-10.7120746603,11.172929762999999,-3.9866259277000005,-9.9452290497,12.503740310099998,-2.5317920146,-5.3224265068,11.4397754667,Cycling
7.290076732299999,0.6549622048999989,53.024426468,-23.7625949862,-13.145037842000002,-70.25343518240001,13.025954247300001,-4.736640596899999,22.045036316000004,4.6618322573999995,-0.39923754840000053,52.22137546409999,-20.877099108400003,-1.1801525830000017,-69.6847330153,6.130534130400001,-4.637404585099999,9.526718523000003,14.100763869400001,1.504580381200001,58.6458028759,-19.0488551141,4.7221378330000015,-59.26106900800001,0.3816792490000033,-10.7999997614,-7.529770665000004,14.988549876399997,8.480915730800001,65.449617956,-1.9561084177999999,-15.199623298200004,12.427812574999999,-5.0327685832,-12.199867630099998,13.275957107,-1.0952686310000002,-7.200112056300002,11.182939528599999,-0.8418506233000003,-13.127846047100002,11.6890430446,-3.1995165884000003,-8.1434713334,11.8079395292,-3.5952685919000005,-5.631020161600003,12.019365310899998,-1.2986377477999997,-13.451576516100001,12.134355545899998,-4.2808154346,-14.816322517,13.441240310999998,-3.7893603265999998,-5.7110983844,11.8684864037,-2.1648486617,-15.319008064600002,12.4514942174,Cycling
7.096182919,15.4824437147,43.978626621000004,-21.8022897357,-5.059542274799999,-77.6167942525,13.647328662499998,5.731298227199998,36.889313316000006,1.9106873041,10.4458015432,34.2648851938,-24.4572518226,-11.770228862000002,-70.758779074,10.717556951999999,6.3000000725000005,44.711450485,-0.5519083747000003,5.4297710897,23.419846342,-21.823664570000002,-15.996946382599997,-69.732061963,9.875572683000001,4.195419788500001,47.427481846,-0.2946565603000025,17.2328243249,19.852671039999997,-3.9766161917,-8.3954243623,12.1878223428,-2.9954149691999996,-4.824379632,11.8748340606,-1.9673388571000003,-15.2650529868,13.217851638999997,-4.472954124099999,-13.690834332000003,12.713945388199999,-1.3914111889000003,-5.7709128321000005,11.160722733499998,-4.300346693400001,-14.474769779499999,12.979326249,-3.9639209522,-11.168373485200002,12.144609450899999,-0.4705126895999999,-6.968422508100001,10.123613358,-0.7551807106000001,-13.5038226118,11.930986405199999,-3.649711889,-7.5665670358,11.997392654499999,Cycling
-20.7206103812,-2.7778621438999975,-71.78854808,8.014503766,1.4877863174999988,42.86412219410001,5.2007635717,14.757251499,23.341222000000002,-17.556489180200003,-9.3603051763,-66.761070632,13.909923743699997,-0.957252049500001,48.934350979,-4.724427701100003,0.33664092979999793,17.293894381999994,-19.201526843800004,-18.741221046,-63.32137393999999,10.0435120106,1.4190839532000012,52.30610723699999,-2.6671755800999977,9.6564886534,14.329008671299992,-22.1633583067,-14.5358779906,-63.581681061000005,-3.573784154500001,-5.4015280726,11.4449024194,-1.8296435566000002,-15.0304337497,11.014970779399999,-4.443657291,-8.2345356917,12.973711013700001,-0.30693854980000007,-9.797279738400002,11.653886796299998,-4.2349169408,-14.7967912626,12.7088184367,-4.2595751891,-13.778236576400001,13.186845778,-0.5979542143000003,-7.883461474700002,10.993242262999999,-2.8501513670999996,-15.396888924100002,12.549638747,-3.8220751471999996,-7.200356098200001,11.6875782018,-2.7173388249999997,-5.804360100700001,11.281572341700002,Cycling
13.329007481400001,6.481679488500001,55.05801487499999,-4.170992088200004,4.6656484824,7.565648934999996,-16.9549623489,-20.0648853536,-53.67862606999999,17.674809074999995,13.7618321625,54.11908406800001,-4.4801529887000004,9.353435468799997,8.39236596800001,-21.9648856756,-20.337403872,-57.910685741999984,15.5541986458,-1.5992366549999997,56.88931293500001,-1.8213736529000015,-0.43664131200000006,9.529008126900006,-17.908396912700002,-13.6274804406,-55.431296926,15.3625951766,9.896182276500003,52.096183784000004,-3.3159716990999994,-16.017982674000002,12.84016609,-3.5891650377,-7.5353170389,12.1878223408,0.3993602961,-10.4654926266,11.4514942166,-4.9016650442,-14.5314104074,13.592363357,-3.7158740280000004,-6.7362447747,11.7588672639,-0.5833057224999998,-8.1844868637,11.0235157021,-1.9978564894000002,-13.8688128462,12.327226638199999,-4.1209033157,-6.8966452601,13.036455154399999,-3.0754931463000004,-5.850014397999999,10.912187576600001,-2.6680224660999996,-15.5528946893,12.165849685099998,Cycling
-5.861832046000002,5.9282440657,12.545039373000003,-22.350382042,-6.148854726500001,-63.57480963800001,18.668702030500004,12.4045799746,47.8511452638,0.122900819500002,7.550381764399999,23.148854828000015,-25.377862455999995,-10.842748880699999,-70.71068725399999,6.787786102999997,6.1900761127,31.617555247999995,7.233587838,5.1656486504,45.832825076000006,-19.7809157435,-8.093130254099998,-74.46946506100001,5.210687255999999,-8.76564932,18.607634158999993,18.616030312,6.707633836500001,56.77404557799999,-2.6301807879999997,-6.280190086699999,11.273759841299999,-0.6450732857,-9.4625630353,11.739336013499999,-3.4824755843,-15.044105720000001,13.2696094521,-3.3745654522999997,-12.590980816100004,11.1778125768,-1.2378467916999998,-5.3155905699999995,10.8257617948,-0.5249561488000001,-11.5560688023,11.611162185900001,-4.511772412200001,-11.2755512203,12.840166092699999,-3.2515185122999997,-5.514565083999999,11.5930957791,-0.3643116175,-11.5226215361,11.3687305462,-3.9175341961,-9.0328755348,12.042314529799999,Cycling
-23.1290076241,1.2557249557000019,-58.88168009899999,1.1198474900000015,-6.9900763575,-10.670229717,23.094656276000002,11.7030534115,61.82671826400001,-19.277862930800005,-3.777862406400002,-24.1625978409,-11.552671051,-16.4083969124,-43.572520067000006,20.2648851871,17.4259543894,48.3969479579,-1.5091598510000004,-9.629007290700004,22.557252690000006,-17.391602992,-0.09160313590000158,-71.1900773964,10.204580401000001,-0.9564886698000002,35.429771817,7.4221374513,-3.327479643600001,45.43282528299999,-3.4334033012000007,-5.4659810985999995,11.3836231221,-0.4204639435,-11.4581684111,11.767900466299999,-3.5002978140000005,-15.224769877400002,12.356035233,-3.4929736074000006,-5.905434319199999,11.3406543737,-0.5278858064999999,-8.413002487700002,11.571855546,-0.09160655130000003,-10.914223099500001,11.7774219518,-3.6006396416,-6.941811180600001,12.605546952100001,-1.4736865643000001,-6.484291744399999,11.5249805458,-4.3523485722,-15.202064704400001,13.768144607,-4.554741162000001,-12.996010112100004,12.4097461691,Cycling
-27.529007385599993,-2.506870009000001,-71.74809250779998,12.450382661800003,-11.917557813600002,26.103817934,10.861068724499999,5.844275045100001,51.96641196400001,-22.231298160599998,9.083206459000001,-68.550383182,-1.7900757317,-24.6870229596,4.141987214000011,15.970992468999999,-0.09847328489999967,57.340458299,-16.542747688,12.547328281899999,-37.77557211699999,-7.214504146000001,-5.728244972000001,-36.955725286,14.092366372799997,7.619084614900002,52.39694747989999,-6.544274902999999,0.44503846069999964,6.758014873599999,-2.6252978685,-5.747475335300001,12.1216602328,-2.0337451636,-14.5389787673,12.540605544999998,-4.8616259344,-10.245033741099999,12.511064529099999,-4.3081591672,-7.760414694900002,13.1563282,-0.9141162902,-9.370522021500001,11.3909473414,-4.8572314628,-14.857582281499997,13.019853591,-2.7717821557999995,-5.4567038502,11.303544998099998,-0.41875495990000006,-8.901283737600002,11.236406325499997,-1.8306201639000004,-13.3917620629,12.1726856238,-3.9023975045,-11.006508252200002,13.155595777599999,Cycling
-16.590076161000002,-25.341984275799998,-64.61603165199999,7.448854780800002,-9.462594889000002,28.480915445000004,6.787023019299999,16.5328242492,51.580152696000006,-28.7465649606,-1.4427482261999984,-77.874808597,8.471755242899999,-14.263358831099998,28.632062154999993,7.881679224800001,2.2999999518000007,56.069464771499995,-26.60229044,-0.9610685369999998,-75.5213743165,4.953435230000001,-25.4099233519,30.93587684900001,10.211450290800002,25.541985000000004,42.346565062,-20.651908111199997,-5.892365645099998,-76.62977028,-2.2698291033999998,-5.815102292,11.97224617,-2.3359912939,-15.348793219600001,13.382890702000001,-3.5034716579000005,-7.5167623514000015,12.0943164827,-2.8572314378000003,-5.571450039699999,12.0596485136,-3.2737353387,-15.616615484300002,13.245683668999998,-3.4609911802999997,-7.674965473,12.649492262799999,-1.9460986315,-5.5287253321000005,11.901445388299997,-2.8184130701,-14.8893205642,13.011796950799999,-3.847465742,-8.9073872544,12.4261035912,-1.1875537385000001,-6.381752582400002,10.708086012199999,Cycling
10.490839958,1.8526718136,36.63434945099999,-2.129007779899999,-0.4381681969,41.50458021330001,-18.959541787,4.9854959976,-75.2664119371,10.729007721,-0.14809182890000017,40.10686959020002,-1.1351139544000006,-4.522900749200001,31.285496724000005,-15.9175573461,-20.2114498646,-60.320611951000004,18.628244734500004,6.906870013400001,51.864120957,-13.484733007500001,2.5916033297000007,6.499236370100007,-19.009923933999996,-27.551144982,-57.809160602000006,20.382442653599995,12.523664242999999,52.5541978706,-2.1062549535999997,-14.8485490795,12.3015918734,-4.479301745,-9.7103656769,11.8523731235,-2.6057666310000007,-5.5304343187,11.6377735143,-4.532036152400001,-15.266517828800001,12.8665332796,-4.8540575888,-9.841225145800001,12.986406326700001,-0.7000049799,-7.833412644099999,10.783281325299999,-4.293999045600001,-14.291175936799998,11.9549121858,-3.5366748035,-5.188637539700001,12.5630664833,-1.3010792284,-6.5760885246,11.076005935500001,-4.4192431749,-14.663246440700002,13.922197341,Cycling
-7.833587652199998,-2.4030530699000003,3.0366418799999906,-16.460305689900004,-22.1870229714,-53.12442809299999,26.204580090900002,1.6801526070000006,60.04351138699999,-10.339694786,7.496183252100001,-11.237404248999999,-14.7618321649,-14.4374043476,-46.97480945299999,18.4282440103,17.8725197793,59.841220484,-15.245800970000001,-2.109923932999999,-19.73740510410001,-8.323663902000002,-29.987786393000004,-41.77557182899999,23.149618626400002,25.464122317599998,59.59465885000001,-14.305343340799999,-6.4396948580999975,-12.295419501000016,-3.3665088474999996,-7.503822898200001,12.6531543724,-1.1824268430000002,-10.9867328647,12.212968827000001,-4.892875992900001,-12.556068703000001,13.201738357,-4.0100635291,-8.982338425000002,12.354814528599999,-0.9011768460000003,-8.838051318300002,12.311845778899999,-3.5325244423,-14.3353656758,11.464921951200001,-3.8733446583,-6.855385398699999,12.4705371861,-0.40679201779999996,-7.6026998517,11.418046950699999,-3.8464892530999997,-15.398597908300001,13.037675858,-2.7561572519,-6.9374166481,11.9131641389,Cycling
-13.613740098100001,-6.9183204408,-50.557252511,18.9137404437,9.8312981974,64.131298064,-13.817556762799995,3.806106400400001,-14.96412257900001,-14.570229102199997,-17.887022829,-45.770229337,24.507633400000003,32.2969464251,56.19847391699999,-15.291602857799997,-3.5167940622999985,-20.987787300199997,-11.112976930599999,-21.730534365700002,-41.067174908000005,17.4664119236,11.596946493699999,60.60152721900001,-11.3053443203,17.2213738175,-20.008398261099998,-18.04045849,-13.845038031400003,-46.990076065,-0.6143115796,-11.451820754600003,12.181718825799999,-3.0925830035999997,-15.2010881412,13.040117264200001,-3.3535694151,-5.1910788532,11.5337696069,0.4769969494,-9.947182083500001,10.6013965612,-3.8367236627000003,-14.167396735,13.432695389,-4.127983373,-7.2950827598000005,12.4988574982,-0.6045459846,-7.2696920328,11.4004688261,-3.3425830157,-15.033119392600003,13.5364551533,-3.8335497560999996,-6.6608053181999995,11.9314746874,-0.7310108014000001,-9.5299458475,11.910722732,Cycling
20.583206653500003,16.274045800899998,65.38778649,-12.8351143826,-2.9702286963000035,-18.161070151999997,-15.687785708900003,-22.5450380461,-41.38702278,20.630534392999998,17.8290074827,54.511449434,-15.369465161699997,8.2839696889,-1.6251915110000084,-17.256488323000003,-16.2717553083,-58.997707752500006,11.764122235900002,5.824427367699999,46.80992303709999,-0.9832056049999999,12.045038462299997,23.795420453,-22.8221374399,-9.929771137600001,-67.5312973416,4.967938423999998,-2.815267253800001,27.967174135000004,-4.476127889500001,-14.404701423400002,13.264726637999999,-3.2495654285,-6.580727287799999,10.8472461705,-0.05767098950000014,-8.5465474133,11.6087207801,-2.0247119603,-15.0668107953,12.601396561,-4.023246992200001,-8.070961472800002,12.883134841699999,-2.6616747795000006,-5.203774166799999,11.1470508569,-2.2830126644,-14.7230607948,12.753007889,-3.8955615284000005,-6.6700826604,11.5799121872,-3.718559554099999,-5.398598385,11.7505664821,-2.1201708944,-14.4918596262,12.431962965999999,Cycling
11.376336289,4.651145409599998,50.258014678,-22.870228863300003,-0.6030532827999991,-67.5312973,-0.5396944294000026,-6.580152702000001,9.403054046000012,15.354198267000001,5.638167856,58.9961824544,-21.1145038122,-2.9618324002999974,-49.76870365599998,-1.8167937290000011,-15.9412215715,-14.155724713999996,21.3633588805,1.3793893898999996,66.96106891899998,-20.8748095768,7.329771234600003,-41.481678003,-11.267938519000003,-30.424427229000003,-16.493893045999993,14.560304852599998,15.4297717097,63.563358872299986,-3.5691454827999998,-9.9547505376,11.9527149193,-2.2827685058,-5.610512352100001,11.2732715602,-1.2830127356000003,-6.6471334392,11.4908008571,-4.3821337519000005,-13.824379154400003,12.949785230999998,-3.4653857,-5.8221823684,12.395097733299998,0.03363761599999998,-8.781654835100001,11.8540821087,-4.1294482167,-10.7684710495,11.6126270308,-3.3630907799,-7.308998772400001,12.1829395284,-0.2424853351000001,-10.726234722400001,10.5581836701,-4.4878466463,-13.608803079900003,14.305253983,Cycling
-15.330534267500003,-4.899999834799998,-33.07252015900001,-10.758779620999999,-12.607633328599999,-29.454199407000004,16.3427481518,8.353435233499997,65.1358757998,-14.7099234341,-5.901526982700002,-21.498474968800004,-15.306106314800001,-14.9442744745,-41.84045639099999,16.973282718900002,14.901526737199998,58.07710028700001,-9.137404821999999,4.617556976999999,-13.336638451999999,-13.3885497552,-21.2748092765,-49.516030502,16.5893128903,9.562595414999999,51.726717083900006,-9.1206104744,30.523663617,-3.1045810719999993,-3.2585986434999996,-5.661049454700001,11.3994922641,-0.9475635767,-8.350258348100002,11.525224686,-3.8355028779,-15.7101212492,13.110429761999999,-3.9636767686,-10.5050434082,12.162187575599997,-0.1726611942000001,-12.254555034000003,11.803544997500001,-4.5681689151,-12.747474956900001,13.004961014,-3.5281298932,-6.289223381400001,11.900957107,-0.6047900885999999,-8.613441944300002,11.7210254676,-2.5930713234999994,-14.5189592365,12.516191482,-3.1794970981,-6.270180414,11.6492481243,Cycling
-11.293129300699999,-22.216793395499998,-50.8847321066,11.051908493300001,5.1473285658000005,61.7877844912,-11.215267315599998,14.9213737484,-6.419847680999996,-15.548091757700002,-24.397710013799998,-44.174045934999995,20.6854960434,15.67557224,59.104579917,-15.256487807400003,-1.6816791860000015,-14.082442962500002,-17.5557246904,-18.2824430227,-47.141983017,21.7251910689,0.1893129825000024,70.29770945699998,-15.2687024586,1.3068704603999968,-19.81221542000001,-14.709160137599998,-2.901527286300001,-45.87022818999999,-2.7800830367000002,-4.9657370565,11.0630664832,-3.7598192763,-15.482582282200003,12.976640702999998,-4.3289110899,-7.1642232868999995,12.3833789823,-0.8223194271000003,-11.674232863500002,12.077714920199998,-4.3980029284,-14.111488628500002,13.040361404,-2.8594286921,-6.0060203519,12.5569629668,-1.8630909060999996,-6.3299947707,11.391679763099997,-4.4265673819,-15.826576326500003,13.771806717,-2.7522509515,-5.2421042439,10.811113357199998,-3.1987842054,-5.8490378355,11.8902149203,Cycling
20.182442569899997,6.962595415500002,62.641984738,-12.711450195099998,7.033587652100001,-24.648855012999988,-9.374045564000003,-11.045801518400001,-39.589311998,15.6656479363,31.590075580399997,52.214502333000006,-13.235878275999994,8.0648858053,-5.142748841999992,-20.8221375467,-15.914503942600001,-54.5770989507,16.603053974199998,13.206107139599998,42.8374041119,5.122136974500003,6.888549899,36.9145047352,-21.892366599999995,2.0793893333,-73.106869897,3.630534555000002,-4.3740458985999995,13.53816758199999,-4.127495119000001,-12.034828567400002,13.057939528999999,-3.1863330369000002,-7.3231589318,10.594804764300001,-0.5874561668000002,-8.0682759283,11.3062305458,-3.0183642571,-15.0568010325,12.147539139,-3.5103075805,-6.4066549304,12.249101640700001,-0.8723682046000002,-6.862709615,11.245195388499997,-3.3831103751000002,-15.199623298099999,12.947587967999999,-3.8503955122999995,-10.632728957900001,12.015947343099999,-3.3591845962,-5.2233053212,11.793535229999998,-0.8628467888999998,-9.749916458300001,11.9458789838,Cycling
18.8076334245,-13.127480552699998,61.620610423,-11.993893195599998,6.791602516,-39.53969478700001,-10.154962159000002,-12.473282867499998,-30.006105795000003,13.389312887200001,17.605343580499998,48.4984735935,2.640457725000001,10.686258936100003,10.876335383999995,-21.124427796000003,-9.653434485399998,-66.1404588692,5.1603055478999975,1.787022947300001,26.80839518520001,14.102289771000002,8.226717353,50.716030212,-21.337404417899997,1.9786259646999995,-61.177862174,-6.470992662400002,-13.036641120799999,-2.837405202099994,-3.8748095931999993,-10.6793598168,12.5315723424,-3.9373095643,-7.747719287200002,12.281816482900002,0.030707955399999952,-8.553139209800001,11.732988357,-3.6165087256999997,-15.1395647059,13.049882888700001,-3.8750537152999995,-7.6937642087,11.6543750768,-4.4595262975,-5.275795647,12.908281326700001,-0.22197757339999996,-12.327797222,12.0718555459,-4.3027880495,-12.8544085472,12.6890430459,-1.6909717295,-5.4591452603,10.6919727332,-1.0217822909000003,-13.593178081300001,12.287919999,Cycling
12.566412305699998,9.119083821599999,57.148853673999994,-15.3381677975,4.2969466263,-29.551910977,-10.851145268,-14.7709922188,-34.035879517,18.0061065677,6.188549791900001,62.9419840103,-12.717557336,9.480915590199999,-17.953436079299998,-14.830533790999999,-12.4862591385,-49.56641406299999,11.638931466499999,11.3053438929,54.34503803720001,-5.9213735112,6.8335883143,0.6435119629999889,-17.8259540566,-23.922137147500003,-51.87862664899999,14.567175769999997,3.7740461064999975,59.673282707599995,-3.6555712714000004,-15.263099861400002,12.8067188268,-3.1484912451,-5.9230124445,11.6687793721,0.6117626279,-9.683510303,11.0689258562,-4.252983329,-14.8006975162,13.029863359,-4.5432665717,-10.666664600599999,12.753984449999999,-2.6729052304000005,-5.493080709699999,12.0569629676,-4.2429735838,-15.347816560800002,13.050859450999999,-3.5347216724,-5.4733054123,11.948564530399999,0.2973094641,-8.665443897200001,10.7901172636,-1.7056201407000002,-14.9086076735,12.289628982,Cycling
-1.7809160475999974,7.0740457257000005,4.164884568299987,-17.451908397,-6.2328243726,-55.724427414999994,6.873282146999999,-0.7267179042999985,42.49465580720001,-0.4343513244,11.274045718,29.952674483,-21.568702507,-8.277099131300002,-69.114503476,8.299999952199999,-13.090839577599999,29.142747316999976,8.706870364999999,6.4862594675,48.672518327000006,-22.924427890500002,4.889313000899998,-53.349618667499996,-16.4282444949,-25.344274808299996,-15.272518735000002,21.4267178306,5.571756079900003,62.8129760791,-3.6191943230000008,-6.4254537581,11.8111133562,-3.2532275503999997,-5.589272212600001,11.8362598421,-2.1279834331,-15.049965095599998,11.9304981237,-4.1377490371,-14.405189797400004,12.825517653999999,-3.1167529548,-5.623207759599999,11.8548145298,-3.4495165968999997,-14.8651507369,12.3277149199,-4.6499559457999995,-13.2738420466,12.53889656,-3.1758350076,-5.4276511128000005,11.614336011899999,-1.0862354194000001,-6.7665182046,10.9497852336,-4.2297899847,-14.2355119674,12.588212965999999,Cycling
-13.355725099,-3.260305785000002,-25.476337708099987,-16.691603374000003,-17.2305342674,-37.856487085000005,20.883969784,11.4381675122,61.7793886563,-13.1725192068,-10.783206366499996,-25.791604087699987,-7.772519778700001,-8.6366408361,-30.899236677099992,23.3251906883,11.928244638699997,65.60457963799999,-23.543511678,7.324427033000001,-63.088549431000004,8.0862596024,-3.1343511811000004,26.61984711340001,6.892366410000001,10.08091507,13.215266136199997,-9.0351144315,10.1748094131,-37.626718904,-3.7344286865000003,-8.341225143800003,11.966875075999999,-0.7085498886000001,-8.0714498488,11.137773512699999,-2.5154345873,-14.963295173899999,12.6345996853,-3.6104052459,-5.9193503353,11.8491992954,-2.0525439949,-14.2228167539,12.4473438273,-4.7327197668,-14.5453264235,13.283037185999998,-2.4263233363,-5.7101219181,11.8045215616,-4.124565446699999,-14.329261875399999,13.268877028,-3.4597706317000005,-4.746254921099999,11.299150467100002,-1.5361865888000001,-8.9991841319,12.841875077000001,Cycling
-14.204579988,-17.1251909249,67.028243823,-53.3679382347,-58.13740444099999,-69.779390243,3.2320610524999998,-48.22671702130001,76.47328214199999,-50.2839690543,-41.0290077677,-64.79236698000003,-10.938167530600001,-56.2099241703,0.4335885054000002,-11.0015268852,-33.7656484647,-1.3274811806999984,-1.9862595790000004,-40.777861575799996,80.0099222907,-46.51221317940001,-46.303053342,-74.94198445859999,10.666412353999998,-34.816793727,34.04351024899999,3.1167938720000015,-0.7213738918000011,42.019847294,-4.6248096108,-8.235024069900001,12.8767871862,-2.8157276867,-6.4750144002,12.7613086696,-4.9565967319999995,-7.920570944700001,12.685380936,-0.32134271859999997,-11.795814704800001,12.723955152799999,-2.7627490996000006,-9.6339499472,12.334062574999999,-3.956352568,-10.527748776100001,14.098466874000001,-5.4602589129000005,-12.957191753600004,12.660478593,-1.9927295684000002,-5.9422994626,11.189775466099999,-1.3652881383,-13.688881205300001,11.8035449984,-4.8298877324000005,-10.3060687994,13.1096973432,Cycling
-17.9809162608,-14.970992849200002,-79.11297549909999,25.370229627000004,5.123663806599999,61.241222474999994,-17.2251910332,-6.1717564107000005,-26.66793961540001,-0.849617862000003,-6.2229010573000005,-21.274044420000006,12.320610802500001,10.022901555500003,63.945038411,-18.951145125200004,-8.1946563244,-80.506106577,22.077099512699995,8.1229005814,70.732061104,-22.533587838900004,8.730534459400001,-63.85419795569999,15.558015106600005,-1.2641222239,36.21984786799999,-6.467939108000001,-0.4763363133999993,6.321374890999993,-3.3323291059000004,-6.654457665299999,11.635087967599999,-5.547661017600001,-12.0702289581,13.112871171,-3.7739795027,-4.870766442500001,11.388994215499999,-1.7783741117999998,-14.100990580700003,11.565019607599998,-4.4565967151,-8.1051412487,12.7000293738,-2.0630420474999998,-9.0206685,12.212480545,-4.241997241899999,-12.8168108943,12.676591872,-2.8535694126999998,-5.3155905663,11.455400467,-3.7939991235,-15.515297032700001,12.798173903999999,-3.1946338655,-4.7982566805,11.019365310499998,Cycling
-10.71832037,-3.6320608673000003,-42.048855198,21.6198477274,7.3061066734999995,68.55419998900001,-23.680152082599996,-0.6656490917999991,-51.6526717296,1.8328245140000015,-16.9030538439,-10.344274516000002,21.7488551614,9.540458249400004,61.16183061300001,-20.846564962400002,-0.5786252973999992,-27.174808702,-13.724427224,-11.493129586999999,-36.66183013999999,21.3511451209,13.720610618999995,65.11679429969999,-21.939694593299997,-6.9916029939,-30.50534353500001,-9.544275140000002,-17.8229003664,-29.97251644160001,-2.0693897136000006,-13.9103167493,12.123125074299999,-4.6628954715,-11.8717426289,12.242265700099999,-4.182670867400001,-6.6144186975,12.0723438269,-0.34111821350000004,-11.456703566800002,11.8562793733,-5.0256885112,-14.632240580800001,13.341142654,-4.4587939258,-5.9664694725,11.9119434361,-0.18755376319999995,-8.6464009278,10.5188770285,-4.893364226600001,-14.6490862834,13.010576249000001,-4.4646532775,-4.228432461599999,11.9280567169,-3.2581103768999995,-6.765541649499999,11.4929981217,Cycling
15.274809228200002,5.720610914100002,72.2106871145,-23.305343855800004,8.375573155599998,-74.56717558100001,9.285495948000001,-5.2183205841,34.64351234299999,-2.698473119999998,2.470229245,30.6763343414,-21.208396959999998,-17.0893132922,-68.64427462400002,18.683205891000004,4.941984367600003,56.075572342399994,-14.576336122399997,-4.0175571676,-12.028243239599998,-8.783969808,-10.144274998099998,-28.3274816921,18.1274806459,7.321374301799999,64.4862594507,-24.225190546,-10.377099227200002,-74.794655043,-5.8164598341,-9.627846241699999,13.793046950699999,-4.1834033402,-4.1214988681,11.981767653999999,-4.861626047100001,-15.102699472999998,12.797441482,-4.266167002,-8.405434131,12.0049610134,-2.1997608303,-6.486488913700001,10.9971485153,-1.147514686,-10.0670551296,11.753007887999999,-3.4736866127,-15.0130997652,13.146074295,-4.645073205,-12.9518206599,13.103837967999999,-2.0085986583,-6.096596334099999,11.2449512479,-4.2068408462,-14.740882968,12.6482715604,Cycling
8.612977216399997,5.6091604243,43.02976979580001,-4.370229053,0.4053431313999999,6.368701744999998,-8.3572519304,-17.060305310399997,-46.300001429000005,15.258778860300001,10.661832216099997,70.44580249699999,-16.3091598604,-22.584732839000004,-53.70763282600001,2.0748087879999995,-6.1816796292,10.989312365000005,7.1366414077,14.097709894000001,50.10381690979999,-21.119847207300005,-7.980152677000001,-71.9320609064,6.601526163999997,-1.8458015323000012,22.977097758899994,7.967939471399999,14.590840124900001,47.594655806,-4.1816943614,-6.2635886192,12.2515430449,-1.2734912811,-9.621010303300002,11.9463672644,-5.463432586500001,-12.848793313300002,14.114580154999999,-3.7754443647,-4.2071921348,11.2788867965,-3.3630908608999994,-15.275306892999998,13.300371171,-4.1311572195999995,-9.1788715324,12.669267654199999,-2.7202685417000003,-4.868813225299999,11.515703200699999,-2.8513721115999995,-14.364418221300003,12.410234452,-4.4111865046,-9.561684130900002,12.006181716999999,-3.4216845348,-5.2489401821,11.6267871856,Cycling
-21.4229007363,-4.5450382229,-70.925954821,5.381679536000001,-10.451145186600002,21.706867128399992,8.322900606599998,12.763358402200002,53.938166425,-22.161831856,-6.1244276050999975,-63.876335712000014,2.919084739499997,-7.1931301354,0.725191166900008,13.943511605800001,9.370229267199997,58.222137163,-19.480916021600006,5.389312649,-43.946565430999996,-2.2450386042000012,-19.093129539,-24.053433992,17.664122057,16.644275189299996,51.80076465500001,-10.337404633,-15.222900936099999,10.817558657000006,-1.1892627865999998,-11.3881000515,12.059892653999999,-5.104057544700001,-13.175941750000002,13.152177811000001,-4.339409142599999,-4.9064108855,12.133134842,-2.1948779613000005,-14.328285408100001,12.481279372,-4.643120131,-12.470375442599998,12.773759843099999,-3.6465380622,-6.8844381302,12.5281543724,0.38373522169999996,-9.118813037300002,12.0476856238,-2.2795947491,-13.709877300899999,12.6338672637,-4.5938037099,-9.3155903783,12.994951247500001,-3.4290087817000012,-5.6947408633,12.347246170399998,Cycling
-13.929007720800001,-5.108396296700002,-62.82061118520001,8.951908254200005,-14.4183209434,21.9083955013,11.2190841679,10.7839695263,53.52671833699999,-22.733587884499997,-5.480916214,-32.894656703600006,-9.85801506,-13.5603055246,-39.63893106799999,15.5587782377,10.035114909099999,58.80229071299999,-5.943511296299999,5.942748070299999,2.4877870039000216,-23.6083969124,3.596183678999998,-66.292367936,12.845801542999999,-7.029007363199999,24.01297683160002,7.987786101500001,11.984732914699999,50.615268520099995,-0.7349170842000001,-9.319496631000002,11.234453200799999,-4.8562548635,-10.855385204300001,12.3997364065,-4.266166901699999,-5.1134421345,12.3003711703,0.1068798035,-9.0101704607,11.281084061800001,-0.8755421041000002,-7.076820849700001,10.485429763399999,-3.0593798602,-5.5494772907000005,12.040849686700001,-1.6553271914,-12.639320658600003,12.5596485136,-3.9033740464000006,-14.5560687054,13.766191482,-3.0786669611000006,-4.503334713399999,12.3184375771,-1.0710986801,-12.678139015000001,12.5603809374,Cycling
-24.015267110000003,-5.619847108,-45.64809007879999,-5.776335714999999,-18.546565154,-15.535115441999997,19.611450243499995,17.927481365,56.773282627,-15.99542036,-3.8969471416000006,-10.585495748,-10.087785816000002,-19.7595425599,-44.123663328000006,19.8465652235,20.0282442096,45.63587722999999,-13.754961992000002,9.2900766366,13.403816671000001,-21.2473284003,-19.393892760800004,-61.737403953,10.174045276300001,-0.023664094199999753,33.06030617300001,-0.26488544879999976,0.6267174483999985,41.841222386,-3.6873095747,-14.675209236099999,13.474443436000001,-4.3916552877,-5.4535300259,12.177324294799998,-0.22148936980000009,-8.008949757,10.673418045199998,-4.1143114602,-15.013588236699999,13.200273512999999,-4.3687059998,-9.090004440700001,12.5713672641,-3.4336473952,-4.7601707455,11.766679764700001,-0.1248096169,-8.545082566,11.640703200399999,-3.3198778568000002,-7.1283346145,11.649248123,-2.5427784438000005,-4.8194969182000005,11.9051074982,-0.5532764135999998,-12.163490580300001,12.135820388099997,Cycling
-20.755725145200003,-5.506870244899998,-73.54427584300001,6.501526546999997,-9.7587789052,18.673281624399994,13.1839695457,15.714504145400003,53.25343428,-19.244275046,-2.001526979200002,-30.245038419000004,-9.227481461999998,-16.017556978800002,-37.23511735,14.73511486,8.528244716,37.44809131800001,5.654960822300002,4.293129797800001,39.53740315260001,-25.541220949399996,-11.0366411266,-49.287786757899994,-10.354198503700001,-12.145802163599999,-20.2526719882,14.716793437000002,-1.4435109181,25.622136509000008,-4.5996630942,-12.9984515156,13.1446094509,-3.7598193765000003,-8.3429341316,11.977861405,-0.7468798966000003,-7.376381491900001,11.5230274191,-0.15728032879999998,-8.307045460100001,11.617753982,-4.581108374,-11.5763324698,13.5337696064,-3.7175829774,-6.5306782693,11.732500077,0.09125490190000018,-7.985023785500003,11.5650196082,-1.8184130169,-13.000160500300002,13.052568434900001,-4.2144090886,-15.4078752528,13.2361621869,-4.5759812951,-7.2245258338,11.8211231248,Cycling
4.640458239999997,10.253435278500003,45.14351119410001,-22.825953436800003,-10.854197685999997,-27.81526679099998,-14.202290106399996,-7.708397103000001,-44.20610807799999,7.801526450899997,0.32977117209999635,33.902289960000004,7.2335877885,4.262595634499999,50.929771047,-21.880152016700002,-8.975572775499998,-38.071754847,-7.388549804999999,-22.5847331965,-30.578627497000003,15.499999839000001,5.286259601899999,43.819845581,-6.581679535300002,5.6122132294,31.722900769999995,-21.9022899024,-10.4519078117,-69.42671739000001,-3.712944264,-6.270180318200002,12.091386794600002,-0.4392627239000001,-11.0782855985,11.8162403104,-3.3201220813000005,-14.260414408600003,13.5149707799,-3.8948290986,-8.400551318500003,12.0301074977,-1.8921435568,-5.7399067854,11.465654372999998,-3.435844705,-14.7098772993,13.593095779999999,-4.4983447075,-13.344398783799999,13.5437793728,-3.555229497,-5.638100242,12.1580371865,-5.0266649844,-12.664467144100001,12.572587967699999,-3.1816943169000007,-5.671791744399999,11.600664139199997,Cycling
2.610686874000001,-14.413740825300001,0.6633579794000027,11.1061065902,10.689313092400003,54.030533412,3.6564883111999977,-24.5152680399,17.328244403999996,13.770992659800001,10.5893127889,55.562594894200004,-15.671755219099996,-1.5778618583,-20.9022916743,-10.996946048,-30.777862502400005,-47.21526722699999,15.18167944,12.322137140200002,24.628243453,12.046563989299997,4.272519068700001,49.46183243200001,-23.364885808000004,1.5534354215000001,-26.052671147000012,-10.670228767000001,-13.845038127399997,-46.2534350203,-0.1699756837999999,-11.5589984886,12.330644607299998,-5.040336871,-13.771400736499999,13.3799610146,-4.7959520749,-11.967689799300002,13.691972733,-2.8877489781,-5.7687154769000015,11.943925857499998,-1.6372607265999999,-5.9076313943,10.861894607299998,-3.978080961600001,-10.3610003432,11.843584061,-3.9368212469,-6.009682368700001,12.480791092,-1.4907763358000004,-5.656166645499999,11.0928516396,-1.5244677728,-13.524330425600002,13.0789356234,-5.2048876462,-11.9466937059,12.7764453897,Cycling
17.9114499453,4.841983794699999,33.22824564099999,2.5999995713000006,12.478626250799996,47.006868923099994,-18.712976740000002,-1.632824181100003,-39.447327787999996,-10.169465637,-28.5961825695,-31.945038408000006,18.298473312499997,13.825190735599998,35.41603013099999,-2.180151939500001,5.3274811377999995,42.22824249199999,-22.7748095626,-4.512213418600003,-58.007634352000004,5.933587551999999,-21.635114575400003,1.5259545219999993,11.4099240763,21.861832290199995,58.27557296299999,-19.906106699699997,-3.160305404,-40.37557222299999,-4.48687017,-5.6810689922,12.896318436300001,-1.8264697193000003,-6.2443014136000015,11.1536426549,-1.3931201939999998,-12.1002581584,11.8811817166,-4.9119189354,-14.366371345000001,13.744707107100002,-2.6777881299,-5.004311275799998,11.4637012474,-0.6926807552,-11.9786761283,12.3936328891,-3.9482958794,-15.0917131412,13.825761793999998,-4.1047900262,-5.576332665499999,12.1619434354,-3.1895067675999997,-4.864906975899999,11.4707813262,-4.5701221016,-14.8317033761,13.490556715,Cycling
-11.885495806200002,-20.124427521199998,-29.97175495,13.806870413000002,14.8709919673,49.61373867340001,-18.148091887200003,-9.9526715291,3.9603041923000006,-15.891603042199998,-15.958778715000003,-43.619083880000005,19.5251905927,13.180152416000002,56.96564979450002,-27.312976980300004,16.999236941800003,-35.699999615,-10.828244398999999,2.9717558982000005,-31.77557483779999,18.609923743000003,16.0992365135,67.04656634770001,-20.912213803500002,-12.323663736500004,-48.007632627,-3.486259436499998,-19.6229010823,-8.407635107,-4.1099169612,-10.17691841,12.2879199991,-0.21733893150000014,-7.733803272600001,10.348222732299998,-4.714653337,-11.4032367702,11.0518360139,-3.4473193818,-5.7613912593,10.2688770297,-1.2666553445,-11.771889016,11.945878981999998,-5.0154345928,-14.451576327999998,14.191972734,-2.4949267749,-5.497231197,11.5298633577,-2.7105029410000006,-10.574867629500002,14.2625293734,-5.5159228149,-13.674721049999999,13.73787117,-3.4812550067000005,-5.8053365671999995,11.521318435400001,Cycling
19.712977479799996,-8.425955008,68.7442749983,-26.616030741399992,-1.4221376597000002,-51.04274712420003,-0.186259079000002,-25.574045562800002,-3.928243638000005,13.3839693087,9.446564960199998,61.04961885390001,-21.9374047761,-3.1320614822000037,-42.14122209399999,-6.9137408744,-17.4022901531,-23.622136698,17.730534933999998,11.350382018399994,53.505344727399994,-14.988549567200005,10.449618243999998,5.762595092999999,-13.5679386387,-14.719083894099999,-56.92290078800001,5.919083976999998,-5.380153559999999,7.299235929999997,-0.21758307220000012,-9.5477680206,11.507402418899998,-4.3423388246000005,-12.452064800600002,12.8011035932,-3.4502490283,-6.295571038399999,11.477861403800002,0.09711418669999991,-9.451332565900003,12.0047168732,-4.4082567816000005,-14.543861674100004,13.598955155999999,-3.8377001883999995,-7.7714009285,12.000078202000001,-2.1340868499,-6.1322407737999995,11.573320388899997,-0.07646976130000009,-8.029701709600001,11.449541091499999,-0.8496630967,-7.329018205600001,11.8142871845,-4.563286054,-7.375649064399999,12.469072341499999,Cycling
17.6442753552,3.034350849799999,46.40381776,-10.4801523216,0.6885491850000008,14.196946525999994,-22.318320179,-14.920611215499997,-59.87786307849999,0.8610683920999967,-15.632824229399997,3.077101883000002,7.994656812300001,7.4916034689,52.59541815499999,-10.714503539599997,-2.9480913725000013,3.6313001710000066,-17.080916214000002,-7.866412446,-59.2366428856,11.132824753700003,-13.719847463799999,20.20381493640001,11.595419407300001,19.6870228298,46.53282432900001,-14.827480983300001,-5.266412257200001,-18.463356310700004,-2.6074755849,-5.8824850057999996,10.638994217099999,-0.26323739279999997,-9.686439895600001,10.675859451200001,-4.562309476599999,-14.6964494674,14.044755936000001,-4.6809619247,-11.2316059112,12.842119217500002,-2.1492236465,-5.2089011183,11.577470779199999,-1.3521044884999998,-5.682778069599999,10.862627029999999,-4.8474657956,-14.613441749999998,14.392168043999998,-4.7725145917,-14.694008063700002,13.288652418299998,-3.9797900078999993,-14.227699565199998,13.1355762492,-4.2898486559,-14.6205218317,13.633134842,Cycling
-16.419847393999998,-9.9755726576,-48.08778553699999,14.228244621800002,-9.2374041471,35.28854827099999,0.441985058100002,-0.12366390300000063,48.57251719099999,-18.976335621699995,-0.6641226293000007,-57.4450382572,-7.677862835900001,-13.243511488,-12.545799263000005,12.274046181400003,10.1190835513,58.244276424000006,-12.605343294399997,0.8885495185999982,-3.4335887799999996,-15.9854962825,-20.699236965999997,-56.8992358683,5.864885712199998,-1.5473287584999973,33.76946373,7.291603088,3.025191115000001,49.60610776840001,-4.150932598,-5.0548483855000015,11.970781326100001,0.21259274199999992,-9.218666552800002,11.238847731799998,-4.493706060300001,-14.795082282900001,13.612382887999999,-4.272758752600001,-13.115394877300002,12.6809864046,-2.8162157478999994,-4.8946920394000015,11.7942676544,-0.30449713159999986,-11.1793598148,12.5047168732,-4.3555224568,-9.0216450682,12.7813282014,-4.0051805675,-4.814614009700001,13.6763477306,-0.6826709866000001,-7.388832569200001,10.982744216899999,-3.5920946748999993,-15.026283550800002,12.715410230999998,Cycling
-20.602289908899998,-1.389313126199999,-44.62900724299999,-4.712976838,-39.241222956,-25.14961644400001,15.0328244202,15.350382375999999,41.571756367,-2.7320605994999987,6.111450481,24.651907347,-22.3374049432,-14.442748643699996,-62.35190826419999,2.4694650670000042,-13.6885493037,-0.35343427710001124,15.451908588499995,16.0984736925,47.346566013,-6.4687020787000025,-8.512214136099995,12.252672195000006,-22.004579641,-3.751908893400002,-60.02289997039999,1.2961829174000017,-19.502290058,6.64198495400001,-4.9683153874,-13.6219866744,13.250566483899998,-3.8999560175,-6.091713523600001,12.263017655100002,-3.2017138539000003,-5.951576801900001,12.0962696077,-4.1890186128,-13.3324359888,14.512041090499997,-4.236870038400001,-7.2897115711,12.234941482199998,-3.9207079410999994,-6.661537646800002,12.292070388499999,-0.27861817180000015,-9.282143112300002,11.160722731299998,-5.336967725700001,-14.3871233942,13.6172657018,-4.968071276,-8.1200337398,13.010820388299999,-4.3540576345,-6.651283931200001,12.645586012699999,Cycling
15.280152178500003,7.316030359499999,49.720611186999996,-15.494657184300001,2.496182895600003,9.43587971,-11.701526451000003,-23.877100091000006,-62.699235683,7.2503818275,-16.226717447,26.570994575999993,7.4862588888,1.820610677,55.000762089199995,-20.770992564999997,-10.029008194000001,-58.098473924999986,4.509160329000002,-11.156488418,8.079391290999999,2.3687027694999987,11.396183395900001,57.45572662100001,-23.4145034665,-8.896945831299996,-73.0335886158,48.435114003,-32.9641222236,58.12213697290001,-1.2119678735000001,-11.749672316800002,12.5071582792,-6.1465380379,-11.452797219299999,13.847002027099999,-4.2605517502999986,-4.9791647905,11.6863574972,-4.1665576603000005,-15.196937657000001,12.866044998000001,-4.335991212000001,-7.0201803207,12.628252029799999,-1.5151905744,-8.1871724099,11.6365528099,-6.370903265700001,-12.0819476137,14.5564746845,-4.2744678438,-5.0140770857,11.878496168399998,-3.3293995439,-14.424965000399999,13.640703198999997,-4.233940553600001,-5.9596337319,11.060869217499999,Cycling
-9.556488610799999,14.738931418000002,-38.832823559000005,22.112213849899998,2.8297706126,-5.658779146999997,0.22824382770000326,33.3832067478,6.4160295131,4.229008103000003,20.162595392,-53.32977047200001,-3.2587786891999997,32.676335431,32.893130484000004,2.2717553379000015,9.382442466999999,-66.306107433,12.061068153999997,41.958778639100004,42.657250397,-13.286259460999997,19.594656374200003,12.19541970699999,-30.039694393799998,1.3610683440000009,-50.9427478786,-9.520611190099999,-14.161831999099999,-20.414504051999995,-3.7422412779,-10.264564895300001,13.6553516396,-4.862358364099999,-3.8046044353,11.974687576200001,-0.6711962819000001,-11.187660599,12.392656325499999,-0.7378467321999999,-10.952553172700002,11.729082106299998,-4.850395428899999,-14.631019782200003,13.0984668728,-2.7786181984999994,-5.679360103799999,12.144365310400001,-0.11504400960000014,-9.254555224700002,11.086259843799999,0.1669384838,-10.482826614,11.274736403999999,-4.1531298609,-10.495766064000001,12.7779102316,-3.3430712647,-6.9537741655000005,11.397050856699998,Cycling
18.2923661233,14.303053091999999,52.422138122,-11.081679678399999,5.930534029200001,13.351908880000007,-14.664122437400001,-6.599236490599999,-67.567176198,4.416030215900001,-2.7045802369999996,23.744276618,4.460305164799998,10.7091603499,54.472519174599995,-18.9511450064,-0.07862480950000013,-61.44732780300001,-1.1549616823000008,-11.1236638068,-3.754198998499999,13.8458014494,20.577862609,63.54809134960001,-19.988549612599996,-8.042747784700003,-56.31603030299999,2.838167668000003,-3.604579924299999,1.323662945999996,-2.2603076224,-15.144935893100001,12.762773512899999,-3.8250048764,-10.5873188013,12.5244922642,-2.7429735873000007,-6.131020163900001,11.670976638399999,-0.20830572550000004,-12.799721145200001,12.1394825002,-3.3452685232999997,-15.242591953200002,12.756181716999999,-2.7434619259,-5.4503562922999995,11.534013748200001,-0.6548389314,-9.067299461000001,11.5904102329,-3.352348697000001,-9.364174365600002,11.879228592,-1.7930225431000004,-6.202553367999999,11.297197340899999,-3.3616260407,-12.639808941000002,11.922197341899999,Cycling
6.7106872576,11.660305094199998,58.1801521687,-20.8458015924,-10.412977313199999,-79.626718519,17.4618319977,-6.4061067589,74.7419841837,-24.085496330000005,-9.056488607999997,-47.60000114099999,-1.8312980516999986,-16.832824921100002,13.526719087000009,3.918320943099998,-8.443512054,39.1274810833,-18.924427842999997,-30.532824326000004,-56.967175305,19.793893345100003,-2.956488637900003,59.4274794188,-20.7244274619,-19.293128722399995,-77.237404823,26.643511486499996,-20.382443330999997,92.94580192500001,-1.54009282,-6.496498776,11.8609180447,-2.01445806,-12.882484627900002,13.478593827000001,-3.5828173756,-5.8956686966,12.255205153299999,0.22455564759999982,-9.214272022000001,12.010820389900001,-4.6333544926000005,-9.562904832200001,14.2534351335,-2.1055225378999998,-8.904701899900001,12.6316699991,-2.9121631680999998,-10.2933736797,11.484453199599999,-2.515678811,-11.8461078644,12.046220780199999,-3.9739306747999996,-4.5350732774999996,12.189775466299999,-3.1677784292999998,-12.794105721300003,12.463701247,Cycling
-25.196183146000003,-3.6450382879000003,-62.0160305493,16.6778623233,17.451908873999997,61.562594602999994,-5.9221379767,-16.254197788999996,-32.3061069009,-5.7717557895,15.468702746299996,-4.603052163299999,20.614503930800005,-15.352671812999997,32.9526720958,-18.437404538100004,14.661832166599998,-69.84198459400001,30.5290077204,12.2458019745,76.516029542,-17.468702174,8.146565174500001,-80.947327712,27.2732828155,38.178625915599994,69.241984745,-28.103816651800003,-2.4770987494000005,-70.38473300700001,-5.607475579199999,-7.4249655724000005,12.886552810799998,-3.8865283191000004,-9.8077777877,13.254899978199997,-3.7378467740000003,-8.2054828607,11.923418045599998,-4.461479521,-9.352943993100002,12.7176074976,-2.9861378191999997,-7.7831196758,12.007158278999999,-3.9312060889000002,-5.9281394935,12.0811328894,-2.074272436,-10.679115580800001,12.603837967999999,-5.0085986972,-8.250405120500002,12.897783278999999,-5.7871630428000005,-6.6825341224,11.4339160917,-2.3108447435,-11.241371440700002,10.739824294399998,Cycling
2.8732823909,0.3480913845999993,9.236641264,7.3801527733,-21.551144679899995,21.572518921,-9.3557250498,-18.604580127200002,37.9106874475,-29.0435110097,-10.1045799608,-80.953436462,0.9198473813,4.1274807933,5.580152614899999,-3.3152671694999993,6.1366413596000005,2.3450382067999995,0.2526717514,0.28778625129999996,0.9320610761999999,1.0541984834,0.5572519302,0.11297709340000006,-1.9969465375000002,0.24274810550000012,-2.7152671693999997,-0.4908396988,1.354961887,-1.4099236830999997,-0.1777880735,-10.052651023900001,10.711748124,-0.4214404255,-10.0799945845,10.205400465999999,-0.5657275438000001,-10.0243305217,10.211503985,-0.6887744189000001,-10.0428853024,10.305742262999999,-0.5366748065000001,-10.033608055799998,10.2300586707,-0.36138183990000006,-10.0558246612,10.119951248300001,-0.3162158228,-10.0900040622,10.0901660925,-0.3157275505,-10.079994296800002,10.158525465,-0.3613818495,-10.0428850173,10.111894607199998,-0.36113770879999996,-10.0589982975,10.197099685999998,Cycling
0.058015267599999996,-0.7038167447000001,-0.9541984733,0.16183205979999998,1.5786259639,0.15190839400000006,0.09847328149999998,2.6854962021000004,-0.1755725153,-0.42748092270000004,-0.9999999644,-0.29389314219999996,0.12442748080000002,0.5183206123999999,-0.2267175644,-0.0389312973,0.9389313219,-0.3999999925,0.0389312998,0.42977097779999995,-0.32137404329999997,0.1648854974,2.2496183277,0.04732825040000001,-0.09083969290000002,0.28320610820000003,-0.3984732852,-0.1786259515,0.2549618215000001,-0.6603053451,-0.38750489639999997,-10.078285217,10.1580371858,-0.3862841933,-10.061927797000001,10.194169997,-0.39092286220000005,-10.054115390400002,10.154863357,-0.3904345839,-10.063880921,10.177080153899999,-0.4241259901,-10.078285217000001,10.221757889,-0.4592822281,-10.074623107,10.136552810999998,-0.40361817479999995,-10.06754303,10.1333789832,-0.3667529373,-10.068031311000002,10.158037187000001,-0.3848193435,-10.062904358,10.138994217,-0.40093261589999996,-10.055580234500002,10.117998124,Cycling
