avg_acc_x_0,avg_acc_y_0,avg_acc_z_0,avg_acc_x_1,avg_acc_y_1,avg_acc_z_1,avg_acc_x_2,avg_acc_y_2,avg_acc_z_2,avg_acc_x_3,avg_acc_y_3,avg_acc_z_3,avg_acc_x_4,avg_acc_y_4,avg_acc_z_4,avg_acc_x_5,avg_acc_y_5,avg_acc_z_5,avg_acc_x_6,avg_acc_y_6,avg_acc_z_6,avg_acc_x_7,avg_acc_y_7,avg_acc_z_7,avg_acc_x_8,avg_acc_y_8,avg_acc_z_8,avg_acc_x_9,avg_acc_y_9,avg_acc_z_9,avg_gyro_x_0,avg_gyro_y_0,avg_gyro_z_0,avg_gyro_x_1,avg_gyro_y_1,avg_gyro_z_1,avg_gyro_x_2,avg_gyro_y_2,avg_gyro_z_2,avg_gyro_x_3,avg_gyro_y_3,avg_gyro_z_3,avg_gyro_x_4,avg_gyro_y_4,avg_gyro_z_4,avg_gyro_x_5,avg_gyro_y_5,avg_gyro_z_5,avg_gyro_x_6,avg_gyro_y_6,avg_gyro_z_6,avg_gyro_x_7,avg_gyro_y_7,avg_gyro_z_7,avg_gyro_x_8,avg_gyro_y_8,avg_gyro_z_8,avg_gyro_x_9,avg_gyro_y_9,avg_gyro_z_9,label
1.7206107173,-4.3839695401,-21.141984209,10.553435093500001,5.7091601621,18.319083595000002,3.5030534329000007,15.287022734700003,33.114504435,5.847328263,13.780915927599997,-30.428245532000005,6.923663950099998,-15.274045420000002,6.685495759,6.3053434856,22.317557238,89.629771807,-0.4381680008000002,-25.6977099211,-113.05419883800002,14.501526785899998,18.0244276513,78.146564675,4.893129950699999,-25.2534335865,-81.82519112,17.658014894999997,20.506106515699997,67.302291483,-0.12358887410000004,-4.938149151399999,5.923906326299999,0.27143065909999997,-9.872231198,11.9744434354,-1.0815967084000002,-10.529701711300001,13.10896492,-1.3828663297000001,-10.708168411,12.024248124,-4.1860888694,-11.0614400867,12.797929760999997,0.09857904609999996,-11.142250346900001,12.870439530999999,-4.6526415469,-11.8942036616,12.6953907029,-0.8684619604,-12.722328567800002,12.840410232,-3.7678759901999994,-11.5011371603,12.8909473415,-1.0159229307,-10.6849749566,12.3045215599,Walking
-2.0923663864,0.5465645781000006,-2.622140130700012,20.816793919,-19.438167667000005,22.9488562547,-1.6404577820999997,29.97786274,67.69771041700001,5.689312834000001,-22.929007713,-63.39694709800001,5.922900843900001,33.22519068929999,98.314503766,-9.765649234799998,-34.073283286,-95.57862779000001,9.230534363,27.1541982651,72.99923782599998,18.279389452600004,-25.963358780000004,-97.79465541600001,11.014504027,10.341985128099997,74.081679719,5.305343413700001,-1.2427484025999995,-9.653436486999983,-2.0674365578000002,-12.164711284900001,13.181962967999999,-1.2598193676,-11.003578567000002,14.041093828000001,0.5387646108999998,-10.929604052800002,12.750810624,-0.9214405031,-10.6266254427,13.0274219518,0.7572704284999999,-12.067543410099999,13.306962966999999,-5.1106492855,-11.93619585,13.276933670099998,0.35297358329999984,-12.030678176399999,13.126054764,-3.4419482241,-10.813148975,12.4253711711,-1.282280281,-11.2518694887,11.825273512799999,-1.3206104375,-11.042396831200001,12.2058887487,Walking
15.0015267239,-43.170231058,13.023664666000002,0.12519087189999922,12.1282438277,97.72061023,-4.465648937200003,-58.249618651700004,-79.474810039,11.5832059383,31.120610745899995,97.248854827,-1.6854962825999997,-53.958779477300006,-91.822900396,23.079389096399996,25.199999553299996,85.83282432600001,-1.697709924800001,-36.549617669,-87.495420088,30.486260037999994,17.498472978000002,89.098472974,5.1320611233,6.426718048100002,-29.267174530999988,20.9419844636,-11.478625488599997,40.800763894,-2.3020556687999996,-10.5978168478,14.705156327000001,0.3773876489,-11.115883160600001,12.687334061,-5.1792528758,-13.386879064000002,12.951738357900002,0.24677239960000003,-10.985023878700002,12.78108406,-5.2544481796,-10.431801224400001,14.672441482900002,-1.6397022127999996,-11.276772117400002,13.325761796,-4.1174853209,-10.451088428399999,12.7603321076,-2.8438038825,-11.642250633300002,13.250810623000001,-3.877495110500001,-11.542885208000001,13.4605274181,-5.0823292017,-9.165444087500001,13.062822341999999,Walking
16.750381612100004,31.176336065700003,15.716030887000002,8.127480744500001,-26.174809379799996,7.173281476999989,29.2923663132,38.1839697507,61.37862585700001,10.167939330300001,10.7564871799,-66.21145134099997,25.8190838821,55.46564808230001,76.651909449,4.697710013900001,0.39313029569999997,-115.60916137299998,22.3221377851,11.598473541099999,83.02824545069998,16.336640929999998,-6.067176809200006,-78.32060967999999,26.864121915,17.6366413924,91.85496234099999,6.010686989100002,-11.592366800999994,-70.893129922,-1.5034718215000002,-10.621986770800003,12.143877029200002,-4.011040037300001,-10.270912837800001,12.308916091799997,-1.5405812023999998,-10.131752491499999,12.378740310999998,-4.5679247617000005,-11.751381397100001,13.5786914822,-1.4309620081999999,-10.547279929400002,14.022539137999999,-4.242729439700001,-11.125893020300001,11.6021289826,-0.0645069302,-10.5687643047,13.6199512503,-3.5835498097,-11.0035786621,12.653398513299999,-0.9214405424000001,-11.274818992400002,12.9964160902,-2.6155322239,-11.440346241300002,12.1497364042,Walking
20.7885499486,35.3175570944,85.44885521800002,4.9511451516000005,5.9969470020000015,-41.00992280300001,26.923663907200005,-15.421374414500002,51.539695748,15.219083905399998,26.7763367906,10.632060239000001,8.7038166763,-19.706869552600004,-79.97099151900001,16.090839792,-42.068701456999996,-40.096183774,11.806106806099999,44.1809164063,97.41832028400002,18.345038053299998,-54.445800681,-74.25343399600001,16.8923665999,40.3458010667,99.630533989,1.3152672209999992,-47.901525882,-78.64580197119999,-1.1975636005,-11.1893696789,13.431718825999999,-4.7017138305,-9.8768696782,13.393632889700001,-0.4006885884,-10.169838524100001,13.258134840599999,-0.7810596345999998,-12.411293411200003,12.679521559700001,-5.3667529819999995,-12.276772022100001,13.435136795400002,0.4411083303999999,-11.0555807121,13.2151660913,-7.043022405999999,-10.037514399800001,13.763505936799998,0.28192860789999996,-10.7413716319,13.214189528999999,-5.930473566,-10.7076802228,14.7625293728,-0.8994678913999999,-11.3151020996,13.052812577000001,Walking
21.056488417800004,41.5679390482,92.008397865,2.9015267852999997,-41.9702284446,-91.070993249,27.6763355252,34.395419123500005,96.501526074,16.655725013499996,-33.2664121386,-83.49694443500002,19.735114669299996,8.841985080899999,90.03435001000001,8.545801788799999,-20.058014868,-79.142750163,21.2992363568,15.370229004,90.251908113,13.4366414555,-5.4877864579999995,-62.01450577000001,25.698473787199998,-3.2435114888000043,81.550380704,12.5824426421,14.087786197799995,-18.177099604000006,-5.7737352308,-11.2167134284,13.0689258566,-0.835991302,-11.400307273600001,12.986162186000001,-5.6978075863,-11.888100051999999,13.914873125100002,-0.8660205782,-12.360268116300002,13.310625074999999,-4.1548388247000005,-11.472572898100001,13.1516895296,-0.5789112031,-12.240395069000002,12.719072342,-3.8555224537,-11.2418600091,12.482011794099998,-0.7878955988999999,-12.578285503500002,13.170488357,-0.7861865726999999,-13.3505023951,12.2312793735,-0.753715867,-12.748695756100002,13.283037184999998,Walking
19.421374081800003,-24.2015259102,50.661067191,4.3679385781,20.202291058,14.590839005000001,24.1923660771,-25.783205697000007,19.338167954000006,4.9045801411,27.490075451100004,40.96107005899999,21.8961830754,-41.415267281,3.8519101980000032,12.5381683351,32.5893139719,65.56412086899999,24.567939091,-51.915266889999984,-35.34580307500002,11.203816818300002,39.592367173999996,95.682443245,0.1763360033999993,-46.50152726669999,-82.12366562919999,2.6488550187,8.6160311696,41.922900677899996,-2.9883349688999994,-12.371498584300003,12.7727832803,-1.2161182700000002,-10.8590474124,13.446611404,1.2016063979999998,-11.241371631300002,12.701250074499999,-5.794487345499999,-10.956703566400002,15.012285231999996,0.8131786285,-11.222816942800002,12.1533985145,-5.6362841637,-12.4757465357,14.722490309999998,-1.9019091637999999,-11.965248393100001,13.588701247799998,-3.0969774969,-13.445961283900001,11.606279372499998,0.42865717419999994,-10.044838524200001,12.200029371,-1.2720264881999999,-9.5978170399,11.2591114058,Walking
3.6160308850000007,12.225191045199995,-68.582441728,18.3442749261,6.4175571903,55.688549338700014,28.397709752000004,54.258015976699994,53.687787442,16.459542179299998,-17.427481364,-32.676336283,16.261831843499998,38.56106838230001,98.261069109,20.6251906153,-41.767176063,-81.52977142300003,13.6793892853,47.406107906,82.33053627299999,19.6916030763,-15.838931566000005,-86.7389325167,20.565648745,10.5290071878,87.22442742199999,22.077862262999997,19.498473262300003,-79.37557336100001,-1.2312549084,-10.3099750513,13.353593825999999,0.42670405519999993,-12.1107563011,11.895830154399999,-5.6851121602,-12.0919573779,12.369951246899998,0.8905712008999999,-10.697914695800002,13.2578907018,-4.7991259906,-12.3348773001,14.2603321077,-0.6543506324000001,-11.906654739400002,13.738359450999999,-4.5020067934,-12.5380023001,12.1721973421,-0.3518603863,-12.200111770400001,13.768388749000001,-1.3633349446999994,-12.0878071777,11.176836014,-1.9131396631999997,-10.313148975999999,13.008134841399999,Walking
9.845801443400001,38.0458007861,73.66106986899999,15.960305166700001,0.40076285100000464,-60.4076332,5.5603053584,24.4908397724,74.158778568,19.8206106934,13.161068673299997,-29.812213137000004,15.822137318700001,-0.8809162523999975,50.45496254500001,6.8145037532,31.106107218700004,37.24350911299998,9.941984798,-18.269466606,-13.625189878099997,6.519084072,27.8282442991,69.60457956249999,14.986259687100002,-47.5129752879,-40.89770927399999,10.8641219852,29.4389312992,94.039697456,-2.7105029406,-11.633705615900002,11.7703418734,-1.5823290832,-11.0038227084,12.692216872,-0.8516162878999998,-12.718422317600002,12.811113358099998,-0.22246579860000004,-11.4217914584,12.482744215599999,-2.3071826585999995,-12.125160694200002,13.042558671,-2.5847704952,-11.204018116500002,12.4505176556,1.5875926907,-11.7789690967,12.420244217999999,-5.5046923772,-11.9628070838,14.364336015000001,0.44379388309999984,-10.9264301297,13.211992264999997,-4.2263720394,-11.8519671438,14.065752029700002,Walking
16.892365981,-31.06030461109999,-82.458014687,11.365648889300001,50.18702274,84.775572389,-3.9358779006000004,-37.193131253999994,-87.55419922600001,19.610686920899997,18.348091435700002,81.877099604,0.7297707327000005,-22.760306070199995,-75.75419911860001,16.6541986471,32.106869931199995,81.51450452499999,7.6511451266999995,-2.438930722599997,-40.62671814800001,20.877099538299998,-9.0473284646,57.464886279,2.5862595139000004,26.5801533012,14.92061004499998,18.0694657393,-23.787785708999994,12.803052521000001,-5.368640000025238e-05,-11.767006396900001,13.500810622999998,-4.252006725399999,-11.3673481935,12.0345020298,0.8026806056000003,-12.6991351113,13.166337969,-4.215385750299999,-12.981361674999999,13.424638748299998,0.12396965249999999,-12.3368304245,13.036455154,-4.5981982292,-11.2079243662,13.7151660924,-3.2258837879,-10.831459427,13.208330156299999,-1.8984912335000008,-12.248207567900002,13.401689530499999,-2.7380908371999997,-10.7855609906,12.555009841899999,1.0617138386,-11.1588520044,12.7449512489,Walking
2.2618321663000005,21.936641460300002,48.85648918800001,14.674045492099998,-33.982442194,-23.18091659399999,13.7633587946,38.6335884095,79.181678957,14.839694404900001,-41.1549608229,-61.349618909,12.5450381759,43.1816799363,97.683204643,18.908397520300003,-56.895420128299996,-72.977862168,10.945038389999999,51.825954316799994,88.632822801,1.6809159598,-61.054197392000006,-72.18854905100002,18.687022589399998,31.0984733925,81.97404538100001,2.7977098228000004,-14.6961820569,-82.75878043880002,-5.486870032000001,-12.196449564500002,13.0774707788,1.5324169866,-10.869057082900001,12.613359450499999,-4.8272021766,-11.928627395000001,13.693437575699999,1.5453564016999999,-10.715248583800001,12.4732227329,-5.7712939023,-12.829262064200003,14.594316482100002,1.4389110507,-12.835853862200002,13.148515700999999,-4.7588427364,-11.173500441,14.3950977324,0.477729395,-12.1761859899,13.180009841999999,-2.0168993775,-10.740151023800001,12.6013965597,-0.3467334688,-12.331947613100002,13.128252030999999,Walking
15.625954335500001,26.4694661376,82.15420075299998,6.252671757199998,-11.780152628099996,-66.335878759,19.069465638100002,28.480151738799997,75.58168068,10.465648770100001,23.782443096100003,-15.216031648999996,16.8503816597,-28.245801929000002,36.473282806,11.8572518659,24.087786102000003,39.991604237000004,20.299236725700002,-41.20534369679999,-10.841985318000006,3.8900763989,30.0992369613,90.329008484,13.555725288,-41.8458018322,-70.45725097200001,1.0061069128000006,32.1404576392,96.79236641099999,-2.5715868538000004,-10.9625630379,11.5865039836,0.6310496986999999,-12.697426224900003,13.259111402999997,-3.0317919496000005,-11.5353168484,13.3279590607,-4.925590784100001,-11.191566850000001,13.690752028399999,1.3793407254,-11.4244771002,12.2964649193,-5.4717332914,-11.1861958508,15.028398513000003,1.1293407164,-12.424721145500001,12.121660232099998,-5.7542040633000004,-12.641517830000002,14.722490310999998,0.056586840100000126,-12.613685893500001,12.993974686000001,-5.050834892100001,-12.577797126799998,13.466630936600001,Walking
7.7404580115,-62.3152667511,-85.501526649,13.176335930000002,35.356488132,75.164886849,5.9748092119,-26.74885409639999,-75.175574491,10.3519085292,26.819847299000003,73.91068669099998,14.300763374999997,5.679389808099993,-36.64351101599998,14.870228889999998,-20.622901435,53.551909067500006,10.3061069839,25.494655994100007,36.30915928799999,19.0717559578,-21.427480984299997,-12.283969397000002,10.682442712100002,38.4816798188,89.9954197,3.822137641900001,-42.78397020530001,-76.712978365,0.34687008560000004,-12.409828568300004,13.337236404,-3.9714892506,-11.7762837412,12.237871168799998,-1.3430713295999999,-10.9098286625,12.178544999,-3.793266623800001,-11.642738723499999,11.13337898,-1.6487353862000003,-11.3158344276,12.415605544299998,-2.4524462999999996,-12.3224263187,12.792802810499998,-2.4844286654000003,-11.540199852300002,13.221025467099997,1.3219676824,-11.2135396003,12.6033496862,-5.3438036505,-13.0057757379,13.0135059365,0.46674311100000015,-12.270424269500001,13.282548903999999,Walking
8.1435114375,44.956489659899994,98.96030635599999,6.100763070099999,-64.491603277,-79.84580154000002,16.639695030800006,39.639694406000004,77.802290726,16.0809158476,-17.620609948100004,-79.955725849,15.1938929093,24.768702696,72.073284142,-3.4381680969999997,-2.670229415399999,-40.00229302299999,14.7465644841,7.796947768199999,54.483969882,3.737404531699999,18.101527720599993,13.03053361,15.6480914123,-23.974810474399998,14.648853440099995,8.0595420479,30.698473358300003,43.787784957799985,-4.807182625299999,-11.657387161800001,13.487627029599997,1.0104442151,-11.1647113812,13.072832107,-3.5479052722000004,-11.2794575691,11.973711012699999,0.6530223905999997,-12.621010111900002,13.292070389,-2.380913030800001,-10.9396138188,12.396562575899999,-2.3855516942999997,-11.147133350299999,11.380205155499999,-3.9690478717000004,-11.469154835000001,13.1743946075,-1.1406787513999999,-11.2635883327,13.042802810799998,1.9157177032,-11.0943987844,12.585283279299999,-5.5579150015,-12.338539504900002,14.321855543999998,Walking
19.8496179129,-30.020611761999998,-19.39465561199999,2.2954197807000005,37.303053377000005,80.891605382,12.5679386857,-34.61984709970001,-56.301528937000015,5.1603053985,39.138930984,93.611449624,5.8992365692,-46.33816890800001,-83.451908098,9.552671753899999,40.9328247534,78.88549747100001,0.1992367739999999,-8.4862590771,-73.00687170500001,18.5839697587,5.679389094000001,80.91526603,8.4603049984,-23.0809146817,-66.944275097,12.814503634600001,16.108396909,84.541221421,1.1825634001999998,-11.040199660499999,13.338212966999999,-4.8684619374,-13.314613534100001,12.8028125771,0.2999950323999999,-11.1984028808,13.349199295,-4.168510737899999,-12.5348286621,12.7747364044,0.9396435261,-12.495765971800001,13.326250075999999,-4.7939990341000005,-12.691566754000002,13.5305957793,0.5758739471000001,-12.3746724131,13.504472732,-2.3853076280000005,-11.743568896500003,12.202226639,-1.3838428467,-11.034340285900003,13.791582108,-3.2788623039999996,-11.360512160999999,12.8531055458,Walking
4.258778742700001,-6.237403951100001,-41.09618262600001,22.8755728954,-13.012977678899997,69.70763358500001,7.1419849761,16.319848254,0.16259650600000555,15.083969723999996,-3.5854966186000015,31.794656177999997,16.0702286238,-19.656488801000002,1.3580148629999969,16.533587335400004,11.579388941399998,80.89007606,12.5167939209,-10.932824509999996,-78.21679244670001,20.2152675386,14.749618007,79.94274825599999,6.3083968696,12.5519076703,-1.1068710329999931,19.519084165800002,-4.421373746000002,28.658779427000002,0.3202587158,-11.947181988299999,12.815507889999997,0.3358837453,-11.990639114500002,12.804033281599999,-0.593071372,-11.6698382379,13.07380867,-0.7964404999,-11.690590284700002,13.009111405000002,-1.7803271324,-10.966957474800001,12.402421950399999,0.8678661435999999,-12.3465960504,12.892168045,-2.856254881300001,-11.272621631400003,13.7810840607,-0.9399951934,-10.8912739748,13.309892654999999,0.8358837549,-10.781654834500001,13.246660233,-4.6350634632,-12.851478863299999,12.671953200899999,Walking
3.421373886399999,24.283969390199996,54.07022971800001,9.900000238899999,-24.269466017000003,-28.938932042999987,8.8259540793,29.3557251466,92.175574305,9.4969467634,-32.887785976100005,-75.05877913900001,11.771755838500003,36.8030535797,82.41831970000001,3.872519346500001,-28.980152561600004,-85.982442851,20.6938931831,7.126716898299999,73.25878008999999,4.160305345299999,-12.654961968999995,-64.96335984,19.106869983499998,29.632824466400002,69.635878375,5.758778713,19.2870220198,8.630534362999995,0.6857372133999998,-11.699135208500001,11.9287891398,-5.6162646181,-12.9791643152,13.388505935500001,0.3856884151,-12.346107769500001,13.066240310999998,-3.7781298106000003,-11.1979145046,11.478593825299999,0.48822748669999994,-11.333412647300001,13.134111404999999,-4.863090756,-10.568031883,13.131669996900001,0.3969188868999998,-12.646156692500002,13.049638748000001,0.4174267380999999,-11.9542621607,12.406328202500003,-3.669975641500001,-10.513588333200001,13.5691699982,1.5624462158,-11.3551410673,12.4561328893,Walking
19.851145136600003,-37.59694715940001,29.022137102300007,10.545038425700001,31.806870561000004,68.009923934,15.232824563700001,-24.174045529999994,-52.78625870000002,6.210687006199999,41.62977060370001,90.050382036,10.6274810793,-55.68931231590001,-76.996184151,9.3480915082,34.166412163699995,74.852671244,7.0213741788,-29.689312268,-75.2885483788,15.293129426000002,9.374046703,76.07786254800001,8.190076376,-6.811450615400001,-53.79618225300002,18.6267172574,4.6206113825000035,70.68702334999999,-4.6263353299,-13.539955234,12.321855544699998,0.1620556532000001,-11.7899556168,13.1070117947,-4.179252827,-11.3365864755,12.887773514200001,0.2931591092,-11.865395069200002,13.0852832796,-4.4954150826,-11.7914203638,13.711992263499999,0.33515129099999985,-12.7880022999,13.096025467999999,-3.6890185509000006,-11.1005024903,13.6316699992,-1.0466846473999998,-10.907143020800001,13.729570388999997,0.7499462449999998,-12.236244584,12.903398513999997,-2.9966357141000004,-10.2252583497,13.208818435000001,Walking
4.606106862,20.460304833,7.752672963,16.0152671576,-2.644275096999993,17.626716044,0.8702289390999999,17.349618156299993,46.928245356999994,11.487785922800002,-22.033587642999997,-5.663359256000002,3.4458016525999993,25.820611385,87.44274845400001,23.874045467400002,-44.56030578499999,-46.141220090000004,8.2977097731,28.697709270500003,104.791602704,21.046564892,-38.6893129845,-80.116029749,7.390076404699999,37.640458009499994,96.648091891,4.5839695452,-66.5709921868,-75.316032605,1.2509227752999998,-11.255287647200003,13.0047168721,-4.404838815300001,-12.272865772400001,11.8738574981,0.938666963,-11.358803272900001,12.5257129674,-5.2249072555,-11.9979633326,13.562822340900002,0.4664989171999999,-11.7218403807,13.276933668999998,-5.7009813844,-12.673012064700002,14.976640700299999,0.16889151339999997,-11.7858053201,13.369951247700001,-4.9827196655,-11.3404926289,14.1531543721,0.7206493498000002,-12.810219097900003,12.839677812,-5.661430684,-12.3038715353,14.4500293739,Walking
18.1687020701,30.805343439899996,75.71832009100001,7.3809159398,-22.274809645000005,-63.611450188999996,17.828244341399998,11.796946718300003,75.199236682,9.554198455599998,-9.0396949147,-61.715268720000005,15.0465647574,24.425954125500002,70.820611184,7.792366475600001,15.029770373899998,-10.475571925000015,16.059542178999997,-28.555725298500004,46.050382986,6.3870228449,33.4160319266,30.23893088799998,13.4404580134,-14.669464301000001,-5.534350781000004,9.658778658200001,33.1770991824,71.82213764400001,-0.332817474,-12.078285503100002,13.043046952000001,-3.6680223943000003,-12.031898880400002,11.548418046,-0.315239269,-11.1476216319,11.678056716499999,0.2880321617,-12.6183246604,12.804277420400002,-1.465874011,-11.045570660500001,12.809404374,1.0221630031,-12.266273879700002,12.1780567181,-3.7561571305,-11.429603959300001,12.7022266383,1.8371044151,-11.060951614,12.331377029799999,-5.013237267799999,-11.5436176294,13.9976367947,0.7724072218999998,-10.6568989753,12.6314258566,Walking
13.9854961629,-47.235877623899995,-38.700762556000015,8.5893131017,34.9748097354,95.441222189,16.199236654599996,-37.143511201,-80.10763397600002,10.4244273664,41.713739782000005,85.15190791299999,8.067938971299998,-31.750381273999995,-85.649617001,16.2694658581,20.478626060699998,71.206869892,0.6564886261000005,-27.665649897999998,-66.292366794,15.4946564677,29.503816373,72.78396873799998,-1.2312977318000002,10.603817128200005,-1.0969490009999903,20.5137409207,-30.499236826699995,38.422900966,-4.140190382,-12.8949358942,12.958086013499999,0.9315868258999999,-12.3829730038,13.30427742,-3.6890184884999995,-10.706459522,12.3387012464,-0.41875495289999976,-11.951820850600003,13.538408280999999,-2.4522020756,-11.125893116899999,13.428544999100001,-1.4021532834000001,-10.7184222228,12.548418043999998,-1.9045947103,-11.934975052100002,14.0288867947,-0.47124518139999994,-11.5550923337,13.173173905999999,0.4247509182,-12.302650832400001,12.307939528899999,-1.0608447755000001,-11.423256206300001,13.158769607999997,Walking
5.424427377800001,26.385494967800003,46.55801563899999,18.1351145728,-25.634349505099998,-15.251145547000004,7.6793894056999985,40.8198463876,88.746564488,17.099236679,-34.878624765400005,-70.68778605610001,8.781679344499999,19.7160307455,11.436641304,16.284732341899996,-12.536642259,40.6389306718,-7.3244273776,20.267175341399998,28.580914309,16.0519085177,-13.777098645,1.0374044289999904,11.5564885151,26.339694878,78.945038412,10.0977107513,-30.786258782599997,-84.154962155,1.1703563542000002,-11.355385208200001,12.718828201200001,-2.4043505821,-10.565834523300001,13.0174121859,0.0934520901,-12.916664504500002,12.554765700199997,-2.9097216309,-11.033119582900001,12.8780078894,-1.3010791369,-11.574623490099999,11.626298904,-3.3491747729000005,-11.2545552254,11.1089649209,0.9005809599999999,-11.452553176800002,10.648759843799999,-3.4563524653999997,-12.3453753472,11.805498123700001,0.9906688959000001,-10.9315571786,12.379961013499999,-3.5496141853000003,-12.6935198768,11.025468825599999,Walking
13.960305690500002,42.7610689577,77.132060426,-1.8312981616000008,-5.925952910999999,-84.73740540000001,17.683206273,14.382441805399997,74.88931351199999,-4.1824426899,-22.6709918884,-69.022136692,16.0022902483,25.506870128600003,80.462594989,-5.261832124,3.567939089599997,-5.935113899000004,15.906106801200002,-5.5259542436999975,32.822136875999995,14.836641341199998,29.584732817400003,44.314505001,15.7480920317,-32.277862542000015,-12.864121623999997,-0.37786259699999986,34.558779712,88.34656504899999,0.9579540491999999,-11.406410597200002,13.045976639,-3.6682665526,-10.563393211100001,12.1170215611,-0.48394051190000004,-11.348061084600001,11.197832108099998,-1.1721729426,-12.2137836451,13.198808670199998,-1.8503954649,-11.1539691922,11.9883594511,-2.8838427939000004,-11.738686083900001,12.9827442174,-5.3494189559,-12.026527881300002,14.60505867,1.3021922910000001,-11.2836078646,13.132890700999999,-5.5432665472,-12.1302875519,14.070390700999999,1.4181591302999998,-10.815834522200001,12.732500076600001,Walking
24.016793799299997,-59.23816776700001,-59.98168144499998,7.290076328500001,38.4969459039,89.599235527,7.485496103599999,-52.55419846899999,-86.224426659,19.419847393,22.429008195799994,73.77633667399999,5.768702201500001,-10.203818179899999,-73.888548669,16.362595825999996,16.085496240199998,81.125954812,-3.3335878847000004,-1.8763359064000003,-19.04198609500002,23.553434515200003,-22.2549623665,48.373281860000006,13.770228952299998,37.5885496203,37.658016585999995,10.351908517499998,-27.89465617800001,-12.87404574599999,-4.997856378900001,-10.9315570826,13.477128982599998,0.3122020871,-12.4881976126,13.196123123000001,-3.1082080132,-11.0660786627,13.660722731499998,-1.4021534025999998,-10.785072707400001,12.745439528999999,-2.1428760111000003,-11.6229634287,12.988359452000001,-1.3486865847000005,-10.197914505400002,13.045244216999999,-3.2871630971000014,-11.701576709400001,12.791337967,-4.861625963200001,-13.1290668486,13.8701953888,-3.2961962291000004,-10.9960103033,11.7732715616,-3.7031786100999993,-12.9381486889,12.140947342199999,Walking
7.270229114700001,39.2114499966,85.68091391300001,14.719847631300002,-30.66793927599999,-67.740459062,4.3198474287,35.7022903327,88.42137336,3.2519083734,-41.1656497453,-91.76488666499998,17.3465652457,16.695419312000002,76.11908378400001,7.415267053800001,-25.347326713500003,-71.472518546,17.663358783699998,25.748855786,74.86793917199999,1.7083968277000001,23.1671775398,11.22213553799999,19.2427478311,-28.6229012577,15.338169091999998,6.593893077300001,37.8259543946,69.87633799999999,0.31049310859999996,-11.9850238793,12.9085254673,-3.670952092900001,-11.971840286900001,12.878007890000001,0.01728018229999998,-12.284584332200001,13.074296950999999,-2.1731493383,-11.858803271700001,12.0535449975,-1.6401904110000003,-10.5475239759,13.057939528999999,-3.1965869398000004,-11.064369678000002,13.420732498400003,-1.4927296011000002,-10.795814894600001,13.227373121,1.4259716062999999,-10.956947707400001,12.4715137481,-5.2498095334000014,-11.858070660300001,13.93708992,1.3964305937,-11.1144183148,12.817461013900001,Walking
16.359542274399995,-49.89999865899999,-39.475572968000016,4.592366457600001,33.7435114835,94.074045945,15.9801524148,-37.1129757964,-88.43740673229999,6.729771007000001,26.7343507016,70.14961929199998,5.0099234698,-10.512978077999996,-79.974045166,16.265648985200002,1.0946568547000013,78.838930707,0.20381677169999968,12.929772209500001,0.4633590669999933,17.438167668,-8.772518732999995,20.931297117999996,6.625190902200001,33.07175549149999,69.892364502,17.483205891300003,-31.038167953000006,-45.561068726,-4.025932544600001,-13.485267734199999,13.098955155199999,0.6085888178,-12.686928177299999,12.911211012999999,-4.1209033638,-12.2276996614,12.329423904799999,-0.4497608215000001,-11.3636857986,12.818437577000001,-3.9341356104000007,-10.6112446783,12.863847733199998,-0.42290524290000003,-11.2418598176,12.1743946078,1.4110790334,-10.8673481937,12.430742265700001,-4.9724657867,-13.4278946867,14.068193436000001,0.3126904456999998,-10.906898784300001,13.493974687,-4.012504837500001,-12.2816545489,13.584062576600001,Walking
5.7335877899000005,37.3931292966,93.292364704,11.3671756746,-42.0961826584,-87.73358686999998,13.419847227,36.863358450099994,70.791602328,3.9458012290000006,-7.2870235559999985,-75.3007656,18.336640635200002,23.083968737,69.09694691600001,-2.1656489618,-4.587785923299997,-30.90839844499999,18.9190838825,9.962595457400003,47.958016206,5.6648856404,26.948854924099997,41.11068781600001,21.5427478328,-47.687784204900005,-10.147329332,10.070228934,27.0519090376,92.92747973200001,0.3761669539999999,-12.479408550600002,12.923906327000001,-3.3364794261,-11.4676898007,12.164628983300002,0.033637636800000016,-11.903480815300002,12.775224686,-2.4070360672000004,-10.811439990200002,12.6258106225,-2.3796923228000004,-10.694008159500001,12.058671950799999,1.6154247373000001,-10.995277881700002,12.277177811,-5.2715380969000005,-11.8773577687,14.071855543999998,0.29364740229999986,-10.9776997568,13.385820389,-0.5230029106,-10.7735981936,12.918291092399997,-5.0122607527000005,-12.002113533900001,14.301103592,Walking
10.0549618649,-19.300000563999998,-83.29236679200002,7.581679374500001,36.4229007012,88.37404423,2.3389313703000005,-32.472520061,-73.424428086,15.542748033199995,1.3709921770000002,79.26335945800001,0.04809154269999953,-7.4145034791,-54.610686308000005,22.440458010100002,-0.7717557864000029,74.294655422,-2.4106867799000002,14.610686802799998,11.021374519999998,16.145801401,-6.423664853999999,20.6137414,2.7038167724999997,20.462595395099996,56.74732761200001,12.0900765191,-17.009923926,-33.14503784699999,-0.09795418370000004,-11.784095953900001,12.985673903999999,-5.646293908399999,-12.6713029858,14.191728592,-1.1489795326,-10.661537552900002,13.288896561000001,-1.6699755795000002,-11.439857959800001,12.317461014500001,-2.8313524975,-11.079750347500001,12.945634840899999,0.9750439046,-10.911537646500001,12.5730762478,-4.181938397900001,-12.641273785700003,13.247636795300002,1.1173778467,-11.2718891141,13.019121171199998,-4.1787646415,-11.6566548345,14.265214919799998,0.7885204135999999,-11.8934711446,13.228105543799998,Walking
11.3213742733,32.22442887870001,96.901526059,6.974809385,-29.769464878,-87.13816795400002,9.4984733003,42.3664128584,78.11755829,-0.5534351768000004,-29.625190158,-76.61068724860002,14.9824429267,1.9381669989999974,76.506870644,-1.0519083843,-12.309160034000003,-48.74045982700001,18.4854959735,-6.630534033299997,70.246564871,5.406106782,18.329771882,14.109923929999994,16.232824135399998,-15.146563899800004,18.058015246999997,2.0488550543999997,21.603052721000005,55.59007606600001,-5.6074755399,-13.037025640299998,14.559892652999997,-1.5452197672000003,-10.384437846299999,12.796709058999998,-3.4168017180999994,-11.319252490299998,13.5974903099,-1.2437060803000002,-11.2064593315,12.421464921399998,0.16229973710000006,-12.770424270500003,12.876787185199998,-2.7483447739,-10.5680316928,13.367265702700001,0.7782665757999998,-10.760658741400002,12.996171950599997,-0.1670458649,-10.838783646,12.580400466599999,1.5897899539,-11.0799945819,12.787187575799999,-4.5669482705,-12.3407367713,13.381425858699998,Walking
17.434351170099998,-25.980916689099992,-29.863359071999998,11.355725187399997,33.691603678499995,98.47938843000001,8.635114443500001,-41.216793539,-81.081678783,5.216030460500001,40.9396946922,80.123664099,8.4587786436,-26.203817276999995,-87.17099076300002,14.415266880999999,9.5595427904,70.991604618,-1.4145040887,-12.703052902000003,-31.722901161999992,13.480152818299995,-3.0526727670000033,51.58626059999999,-57.528244062599995,-30.043510446,43.30992354699999,-6.415266992800001,-102.4961841092,-20.309161194999994,0.570014593,-12.7281877504,12.918779374,-4.495903354899999,-10.939369677600002,13.240556716,-0.5054248334000001,-11.169105911,13.051347734,-3.2405322587999996,-10.6698384285,14.137529374,-0.4590380582,-11.478920174,11.1961231237,0.9630809665000001,-11.1036762241,14.5325489041,1.5829540068999999,-10.788490772500001,12.4859180446,0.3385692857,-12.226967333700001,13.075517655999999,-1.9822314211000003,-12.0289691919,13.208574295399998,-0.9463428228999999,-10.661781598100001,13.080400466,Walking
-8.8251909435,-13.542747931000003,-42.667175303,23.621374511999996,9.8221380554,56.609160718700004,11.436641359799996,18.754961488500008,21.661066813000005,12.519847058299998,-16.4442761469,3.2801522269999985,7.4702291715,32.736642340100005,74.81908415400001,13.4938930018,-43.679389387,-44.599999234000016,7.169465661399999,36.01374006019999,98.568701362,2.9877863173000003,-46.9343523081,-77.625191687,13.187022638600002,39.3603046414,71.20229073,7.312977141199999,-17.587785384900002,-76.789314082,2.0189892053999996,-11.0152973179,12.7703418723,-5.0286182166,-13.076088141400001,14.055009841,1.7853466256000001,-11.2589497556,12.997148513199999,-4.876762664300001,-12.777748394300001,13.901445388600001,0.5458446441999999,-12.625648784700001,13.475419999,-4.1931689023,-11.1600728025,13.658525467699999,0.7846142135999997,-12.582924270500001,13.465166092,-2.0940478932999995,-11.8429341313,12.2915821087,0.3786083065,-11.718422222300001,12.987871169999996,-3.4211962408999987,-11.4635396003,13.940996171200004,Walking
20.409923982499997,14.101526516400005,65.701528159,-10.063358693899998,8.405343075000001,-23.65114441,19.4526720047,-1.3122118892999937,38.375573262,-1.9977100251000004,12.816031031300005,49.95419730599999,13.819847487999999,-29.377098795899997,-20.473282240999996,7.904579997899998,41.940458442,92.08473081700001,4.520610904900002,-43.1183191045,-67.69465674400001,7.6328245872,32.6000001679,91.243512909,-2.5641219132999993,-67.45343573,-78.29389305670001,16.534351181799998,32.994656905300005,68.632824143,-4.996879894300001,-13.0853656769,14.567216875000003,1.4140087061,-12.0790180202,11.9446582795,-5.2673877056,-12.7418597221,13.9075489041,1.0897899917,-12.1378559107,13.001543044799998,-4.8955614866,-12.712318706000001,13.881181716999999,2.2018505150000003,-11.513588333600001,12.577714918699998,-3.7654345761,-11.5548481944,11.9519824984,-1.1375049471999998,-10.813637067,13.051347733999998,-2.5598682045000003,-11.3016743658,12.708574295,-3.2034228444,-10.112953758200002,13.1006641393,Walking
-1.7343508832999994,-12.841984615099998,-73.397710036,15.0732824336,16.8862605424,78.375573538,0.867175880999999,7.336640487099999,-23.325189970000014,20.883969496600002,-3.5679393700000004,46.958016384000004,5.260305237800002,21.7702281544,39.677099227999996,9.558015440899998,-17.765648318500002,-11.1763360986,5.6671754659,33.651145556900005,84.69847355100002,12.7839692297,-41.741984078200005,-62.680916205599985,2.2106870723000003,36.0603052691,96.03816851100001,6.1511451356,-60.155726051,-84.24122353,0.38764155250000015,-13.1825336451,12.8057422659,-4.179985409599999,-12.784828471600001,13.1814746857,1.7682567479,-11.677406692800002,12.4097461695,-4.741508808899999,-12.617348004400004,13.016923905299999,1.8771434863999996,-11.3644184113,12.6990528107,-5.0669482142,-12.664955329699998,14.179277420699998,0.4191356958,-11.907631207000003,13.251298904,-3.2283251648,-11.6088031777,12.3687305455,-1.1616748510000001,-10.495277882900002,13.546220778999999,-2.6064990165999995,-11.9286274912,13.676591874000001,Walking
15.667938614299999,35.733587743099996,69.231297302,1.9748091666999996,-20.3679379982,-69.98091508,22.110686920200006,24.356488897,74.03206214699999,-4.0992367656,1.1763362799999997,-25.000000000000007,19.912214184199996,5.142748833,51.687021548,-12.0305345531,11.0083974129,45.73129730999999,16.7427485471,-33.4625949461,-15.31526908300001,3.3770993113000003,17.3496191554,96.25190887900001,2.386259890800001,-29.924426006500006,-74.66717757900003,9.787786173800002,52.4717561489,84.36259384,-2.8574755310999995,-10.786049461000001,12.990556715599999,-3.2993701282000005,-11.617104053000002,13.9063282003,-3.8960498842,-10.627601909800001,14.038408278999999,1.3366162299999997,-10.881752491000002,12.888505935000001,-4.5300828944000004,-13.016029642300001,12.968584061500001,0.8334423065,-12.5055315983,13.271562578000001,-4.3884813682,-12.964027691000002,13.2964649216,0.7055126936,-12.052406788200003,12.989091873000001,-2.7747118506,-10.426186084700001,13.396074296199998,-1.4226611525000001,-10.336342334400001,13.417070389,Walking
-5.9694656531,-37.2503823652,-86.70534324600001,19.1778626444,25.2251904492,72.64122219000001,-6.406106985600002,-18.7450380172,-65.52061387800002,26.272519016,18.382442708199996,73.791602145,5.8007633972,34.84656541169999,13.473281859,12.667938601600001,-25.2618333722,7.590075113999994,5.8122136092,32.7534351844,84.850383741,15.090076075000002,-23.271755280999997,-57.934352101000016,4.4152672053,39.2198474914,93.102290913,10.2854963865,-49.977100285999995,-85.65572661600001,1.3993602715,-12.401039504300002,11.833330155199999,-1.8252490729000002,-11.012123584300003,13.203691482,-0.6758349834999999,-12.2279438011,13.033037186300001,-4.1404344857,-12.169594287300002,12.5059375769,0.9218212099,-11.6991352073,13.124101637999999,-4.578422821199999,-12.631264114200002,10.918291091699999,0.6598583243999998,-12.679848097900003,12.999101637999999,-3.5962450684000005,-11.227455615900002,13.9016895287,-0.9954151122999999,-10.2511370663,13.088212965999997,-2.106254908400001,-12.190102004100002,13.5613574986,Walking
10.0259542769,29.3587787193,69.909160617,2.9870228769000002,-23.823665233000003,-76.76793937400001,24.0297707075,7.681679819500002,79.304580111,0.20458003849999962,14.006108377,-3.9022903410000085,15.825190783199997,-27.625190586899993,26.843512151999995,6.956488609900001,25.092367076800002,74.5465651881,10.112977313799998,-28.458015299,-56.620611579,7.078625989599999,35.9320608019,79.94809073200001,-3.3274811282999996,-38.100763896000004,-85.68091850900001,18.066411900900004,15.4450387441,60.87938975899999,-4.6282275261,-10.662026024100001,13.931718827999998,0.3812938898999999,-12.760658645300001,12.1321582789,-4.7878955037,-12.6566545491,13.808671951999997,-0.5662158192000002,-11.808754348499999,13.411943436000001,-3.4368211717999997,-11.621010208000001,11.830156324699999,-0.18926273069999996,-11.356117630600002,12.842363358,-3.0147020424999997,-11.807777786800003,11.879716874,-1.3899462885999998,-10.4496235845,12.814775466999999,1.0932079554999998,-11.926186084700003,12.290117262799999,-4.361869979000001,-12.1871722213,13.1443653098,Walking
5.0603054083000005,-6.697710224,-39.639695738,14.283206082000001,5.2526707855,48.368702692,2.9687023303,25.099236969400003,75.777862923,10.2061069495,-26.5511434986,-56.50305405200002,9.294656419499999,38.696183065,90.122901344,2.528244215100001,-56.009160570199995,-93.46183204700003,21.762595461399997,26.3908396723,59.830535315,7.232824626699999,9.583969287,-49.33893117560001,20.6236639976,-2.3801529343000007,53.424427127,0.9038167744000003,25.811450079099995,76.048092275,0.5509716452,-11.776283740999999,13.0872364043,-3.8672412154,-12.1207660685,13.523759842699999,0.14081538619999995,-11.5770649906,12.959794997,-2.570854509,-11.485512257,13.094316482299998,-0.19902832929999997,-10.687416553900002,12.918779374100001,-0.9202197743000001,-12.415199662100001,12.983476638499999,-3.809135657600001,-12.3253558155,13.177568436800001,1.4909129918000001,-10.960365772500001,12.8919239037,-4.3801807046,-11.8893207548,13.259599684399998,-0.8540576317000002,-9.7814107908,13.444902421,Walking
9.550382088800001,-20.293893390999997,-55.028245173,9.670228993399999,33.4694653498,71.92671699799999,-0.7259543892999991,-43.3366413624,-84.38091582400001,24.3099237443,13.6519076666,64.090839582,-1.0259541326000003,13.957251117300007,-19.232064059,18.5893130061,-27.118319715800006,37.651144411000004,3.4809160944000004,23.245801452899997,79.95648957099999,5.228244209800001,-30.445038777500002,-61.124427033,8.6053436577,36.1717566023,78.41144943500001,5.609160387600001,-31.8541988361,-95.12748088600001,-0.08159674990000006,-12.657143020300001,13.088457107999997,-1.6794971196999995,-10.995033645800001,12.994218823999997,0.6537548572999999,-10.9151996618,12.6177539833,-4.4858935860999996,-12.4742816926,12.370195388299999,0.8290478284,-10.6232075694,12.795244216099999,-4.812309563,-11.8514789584,12.7198047633,0.21454583399999988,-11.850990773100001,13.171709062,-0.07622565629999997,-12.6578754419,12.876298904299997,-3.569389695100001,-10.470131398000001,13.909502029999999,-1.3750537456000003,-12.738930129500002,12.8452930437,Walking
22.1610690356,3.258778847600003,62.452671434,-3.6595422031999996,7.622137253999999,-27.691603848,18.2290072436,-20.325953717700003,43.661831289,4.037404477699999,26.9992367472,69.434352313,8.651908348,-23.511449659399993,-51.26565017200001,6.7244273897000015,37.3770995599,81.931297692,-3.832824445400001,-33.948091515,-88.55572509900001,21.277862191199997,15.4946567988,62.016030309999984,-9.8564887735,-5.369465349999996,-41.741220487,18.8244279392,-0.08778705099999726,56.09541978899999,-4.131157142099999,-13.397865390300002,13.058183670399998,-0.29814939519999994,-11.9383929255,13.652421952000001,-3.1636278634,-11.7269672395,11.871416090399999,0.46674311379999994,-12.260658645500003,12.8841114033,-2.3110888604000004,-10.6901021006,12.120927811600001,-2.4546435542000005,-10.629555321000002,11.461503982299998,1.4848094971,-11.299965286,12.3396778093,-4.379936507000001,-12.093910694000002,13.3553028107,1.2196727723999998,-11.6376116747,12.6026172639,-3.6450732200999996,-12.2157366759,13.0110645291,Walking
7.3435112953,18.472518729799994,47.552671236,11.780916118899999,-21.4870220551,-21.124428565000006,3.5916030168999997,38.1671749121,89.877862927,8.798473448500001,-40.1564877016,-90.76335774499998,15.3351140972,23.9366409547,62.902289198999995,1.5297709228000003,-6.249619102,-71.12977141899998,20.670228482699997,16.248091832,71.59007740799998,-5.0603053457,14.749618297100003,28.847329343000002,19.0610683292,-8.4198464432,1.6732809079999995,2.3427480943999996,31.461831812800007,88.2244284561,-0.6011280059,-11.291664504900002,13.092851637999999,-4.0252000449,-11.1661763197,11.8120899203,-0.6660694308,-10.471351908799999,12.998857498000001,-1.1355517864000004,-12.2316059116,13.883867262999999,-3.9819872341,-12.2201313022,12.9053516393,1.5980907320999997,-11.464027785200003,13.078447341399999,-4.5625536949,-13.2569962502,13.596025466999999,1.5839305842000002,-11.5348285671,12.8094043737,-3.8272022069,-11.4437642102,13.095781325999999,0.3175731896999999,-11.5094380371,13.084550858,Walking
3.751908755000001,-36.95343585010001,-77.03664169999999,12.0679389474,39.396946603,74.07175464299999,0.6687022808999995,-27.4320595959,-81.59465598060001,20.390839814099998,10.1809160666,66.477098274,-9.700763396100001,3.829007326599998,-4.832062148999995,15.622137302699997,-7.828244023999998,31.936640538,6.240458005900001,32.1977107208,78.36717396,8.5015266952,-33.6725193069,-54.599998463,9.645801502400001,44.0503821431,78.067939852,16.1648854244,-31.306108565,-77.85343399,0.3681102565999999,-12.222572707300001,13.012773512899997,-0.8198779939999999,-10.413490772,12.899980546,0.7687450641999999,-11.2530903808,12.749101638099997,-3.9002002238,-12.414223003700004,12.864580154,0.44721183179999996,-12.0135884282,13.634111404999999,-3.530327192,-11.1935200693,13.3645801546,-0.2322314472,-11.4171528804,13.170244216999999,-2.8936084391,-11.475990772900001,13.434648514,0.44403801860000003,-12.617836380000002,12.738359450999997,-4.0024951223,-11.212563036800002,12.745439529899999,Walking
19.9473282811,13.734351209400003,68.13816795899999,-0.8328245386999995,4.7931287770000015,-43.523665234999996,17.035878134500003,0.9152669849999999,59.61526774399999,5.5129772182,17.958016126799997,31.45343799399999,11.614503979599998,-32.743510861800004,-10.332825092999999,4.139694724900001,33.9801530336,95.94351177600001,13.485496376399999,-32.9618316198,-93.104578793,11.057252073300003,28.232824397700007,58.847328573000006,15.9190838379,-23.801525398000003,-33.377099794999985,4.4274809358,37.010687067700005,92.432824515,1.1303172977,-11.175453662199999,12.791826249,-4.981010705299999,-12.596351911000003,13.208574295999998,0.9840770512999999,-12.132484816900002,12.5525684376,-1.0571826936000002,-11.2108539581,12.5591602318,0.42377431989999986,-12.4269184101,13.586259841,-4.1860888898,-11.7670063023,13.3775196072,0.191352522,-12.2181781766,13.439287184999998,-4.3018115047,-10.288002491900002,13.663408277899999,-0.3303760507,-11.728676033300001,13.158281327000001,0.6068797641,-12.539955520500003,12.7190723425,Walking
7.500763201699999,-66.0152678216,-87.96946715600002,15.370228766299999,30.656488178500002,64.296946815,0.8022900970999997,-15.377862595199996,-67.76793975400001,28.712213611999992,6.7236645211,84.063357442,3.7793892867,19.3572521178,15.68244247600001,15.123664307199999,-15.048090452999997,10.870228965000008,4.0061068058,32.72061093450001,93.13587760800002,10.526717829000003,-46.97557186690001,-69.944275681,5.6488549707999995,38.3442758591,80.08244304899999,7.2832062975,-33.20992298,-87.63435145220001,-1.0601123452999999,-10.0841449749,12.7932910916,1.5456005275,-11.1185688015,12.647783278599999,-5.3066943354000005,-12.416420174300002,14.162675860300002,0.7294384658999999,-12.589027787500003,13.046953200999999,-5.016655206499999,-10.7447896002,14.420000075799999,0.3251415423999999,-12.510414410600003,13.41365242,-2.9124071956,-11.031166553800002,13.472490310199998,-0.8516162631,-10.889564896500001,12.897050858,0.7775341122999999,-12.664711379,12.783769606499998,-0.32256358570000004,-10.8546528812,13.232011795,Walking
16.1923663939,14.100764085200002,72.944275855,5.653435135,1.4236640950000023,-44.511450187,18.239695233400003,5.89770832,55.556487273,4.588549637799999,23.730534180999996,46.97404653299999,17.6190844298,-28.952671382400002,-14.593893812000005,5.674809002899999,25.603815839999992,101.57557239799999,3.0580152291000013,-45.8618311902,-87.56488455899998,7.5412214876,30.5595421773,65.486260797,-2.242748022499999,-24.2625963865,-84.174810411,18.445038224,8.4526725328,72.60000076600001,1.7567821137000004,-11.0519185066,12.9226856236,-4.8181689702999995,-12.434975052,13.701738358,1.1774364404,-11.579506397,12.985918045,-3.4946825803,-11.8578266146,12.464189530199999,-0.5798877605,-9.993080711700001,13.413896560000001,-0.29766119160000004,-13.061195754600003,12.838945387999999,-1.5273975052,-11.1803364756,12.6704883591,1.6185985745,-11.1368793485,12.157304763399999,-3.2722705241,-11.0531391151,13.521562577000001,0.19428217119999996,-12.782387065600002,12.817949296,Walking
0.6809159519999999,17.849617531399996,8.509924329999993,16.0465647159,-10.610686641000001,18.219846338999993,7.2221374516,35.567939286,91.79847364399998,11.4854962155,-37.5824436623,-75.40916061000001,5.4793893476,32.975572538399994,74.564887145,3.5038169144,-33.895419693,-81.46488571500001,17.0137403603,30.9083969101,62.63587655599999,-3.4954199438000004,10.758778282000003,-9.8717570363,20.928244232799997,-20.761068043100003,37.749618145,-2.799236368999999,24.2748082184,64.598472797,-2.6614306683,-11.084389209400001,13.2669239048,0.3148876489,-12.548012065300002,13.253740310000001,-1.2620166389999998,-12.2228167529,13.525468825899997,-1.7043994636000002,-10.490639305200002,12.315996171399998,1.9252392081999996,-11.1163716315,12.825273516,-1.6892628132000003,-11.050941848700003,12.6580371871,1.9332958312,-10.8646625522,12.620683669599998,-4.506157285799999,-13.2662736892,14.517168043999998,0.2650829396,-11.557533836500001,13.175615310000001,-2.8215869217,-11.513588334200001,14.691240309699998,Walking
10.961068601200001,-34.206108582300004,-40.924430079000004,5.0160305017999995,33.0648855716,97.609158698,10.2770995083,-37.2862594616,-82.825954448,13.0015266295,32.890839469899994,64.637404059,-2.0534352779999994,-30.196946716000003,-78.512213519,25.122900295,13.677098458100005,80.20763312,1.6992363697,-64.54351158300001,-83.6832063492,21.83664112149999,3.913740343300001,67.06870365200001,6.566412324300001,9.865648151900006,-40.41908340799999,19.3610687745,9.580151144499998,53.393893244000004,-1.1428760379999998,-9.9278951651,13.131181717,0.6420360856,-12.588539409100001,13.201250075999999,-3.1421435,-10.792885302600002,13.305009842499999,-1.1074756056,-10.496742725100003,13.214433668999998,1.0717235893,-11.5626605979,12.565752028899999,-3.9910204234999993,-11.985512161000003,13.1949024208,1.3956981452000001,-11.0721821787,13.103593827000001,1.3019482664999997,-11.0375141142,12.8094043728,-4.0945361234,-12.964760113299999,13.319658278300002,1.0363232226,-12.8068012232,13.759355545,Walking
-4.225190687,16.832824368699995,50.46335944399999,15.194656466999998,-17.551908592,-27.987788021999982,3.691603112,46.33282384899999,89.157252119,21.1557252177,10.301527408799998,73.58320627100001,5.048091507600001,26.025954335899996,95.66335879799999,3.740457761200001,-33.00076202779999,-89.2297723788,10.8099235963,35.030534601,60.90839624499999,-7.688549588700001,-25.707633212999998,-78.82061081100001,18.0961834791,27.365648866600004,75.83511544,0.7679389946999997,17.941221712,10.640457146999998,-3.127495062,-10.810707474,13.759599685500001,-0.5117725134,-10.7154927263,12.698808668999998,1.1808543803,-12.359047316800002,12.277421950899999,-1.003471753,-10.814125441400002,13.660234450999999,1.1190868797,-10.731361864500002,12.833086014999997,-4.7488329696000005,-12.566811083600001,13.7993946066,0.3251415967000001,-11.2071917534,13.218095778999999,-4.252006762900001,-12.418373490300002,12.287431716499999,0.5858837655,-12.5707172394,13.777177812,-4.2161181455,-11.2818989743,14.204179764900001,Walking
16.802290151300003,-23.074045370999993,19.598472019,5.0198473815,31.414504153699994,75.79465541900001,16.071755308300002,-20.399999608,-53.275571453,3.0877862924999997,39.667939780299996,94.01908359900001,8.5534353967,-27.581680103000004,-85.069466016,11.721374058,31.381679248399998,66.152671442,-9.6244275566,-22.525955206,-82.359542848,17.5679391387,8.034350674999999,87.451145745,-1.0389312739999998,8.595419217899998,-6.7625968960000025,15.193129647300003,-1.8473274759000002,31.802291098999994,-1.3982471473999998,-11.109291362799999,13.05427742,-1.2400440038000002,-12.324135208100001,13.147539138800003,-3.3001634780000004,-11.380775834000001,12.530595778399999,1.4567334087000001,-11.203041553099998,12.530107497699998,-3.7156298094,-11.061928271800001,12.620439527699999,1.7201610446,-11.3341449726,12.9290332798,-5.3633349247,-13.0568009375,14.679521560999998,-0.022758814600000045,-11.934486770900001,13.40974617,-2.7461473873999998,-11.2816548351,14.065996171199998,-1.3462451874000003,-9.948403071500001,13.225908282,Walking
-2.1152672300999997,23.232063376799992,59.351907354000005,10.829771166399999,-8.820609713500009,-32.00381852099999,4.238168049100001,35.1450382212,93.900762949,8.8854959014,-38.8473280902,-79.029008102,10.271755886400001,37.2328243093,72.945801734,-0.1343510630999994,-32.7961840237,-78.404581449,18.0099236339,31.036641296900008,64.919847671,-9.8885496374,3.4999995580000047,-6.7572525109999955,16.4992369417,-5.2687016431,37.272518347,0.9687023073999999,24.545038228999992,57.31450330099999,-1.1428760230000001,-12.054848003700002,13.833574293999998,-0.7883838237,-10.7855610853,12.746660233,0.9140087841,-11.1337056157,12.451494216699999,-0.8374561637,-10.0514304162,13.208818435999998,0.03852044699999997,-12.0260396011,13.431718825999999,-4.267876029300001,-12.6305316913,13.211503984,1.1513133941999998,-12.574135209300001,13.090654374000001,-2.1892626828,-11.3859027853,13.378740311799998,-0.30791504049999985,-11.109291553,12.186113357699998,0.6339794486999999,-12.998451614500002,13.043779374300001,Walking
12.145037919,-26.192366136500006,-37.9977102129,3.1335877841999986,42.857252384999995,91.752673336,-0.36412239269999985,-59.309923166,-88.59771099000002,15.0648853539,28.076336336699995,60.95801524699999,-0.8725191024000001,-15.406106854,-76.79999942600001,21.5053433424,29.853435709300005,74.897709842,-2.634351134,14.985497663000007,19.763359343999994,22.232823944799996,-10.180917728199999,10.313739300999995,2.2068703414,30.842748202299997,82.947328568,8.980915927900003,-17.980152886999992,-58.036641690999986,-4.2566454914000005,-10.836830711400001,14.235429764999997,1.2304150094,-10.773842334700001,12.619462967199999,-4.2093431899,-13.205238533800003,12.547929763800001,0.8725048241,-10.8951802264,13.290361404,-4.4082567723,-12.2272114747,13.3372364054,0.4132762610999999,-12.439369679,13.822343825999999,-2.6477588302,-11.581459522500001,13.188554763499997,0.9498973906000001,-12.914467047500002,13.219316483,-1.7131884966000002,-12.271156786800002,13.521318435799998,-1.4028858243999998,-9.9371724125,13.166337965999997,Walking
9.490076434799999,42.217557189900006,92.563359642,5.333588026500001,-40.2419844066,-78.707634743,15.0259539144,34.912976642000004,69.271755781,-2.2870230667000007,-18.951908244099993,-80.961834339,17.634351377799998,12.2175571478,79.761070058,3.3793894705,8.554198360000001,-14.172518916000007,18.809924173300004,-23.3687022991,44.693893047,-3.596946525,15.822139173,52.77633591499998,17.4488550911,-29.60152740549999,-21.474046331,0.10534351720000008,26.001526618099994,97.564885331,0.7775340974,-11.489662647600003,13.457597732,-4.137260780000001,-10.8419575694,13.8191699981,1.1742626189999998,-12.1090474123,12.893632887,-5.3040087883,-12.344154643900001,14.774980543999998,0.3495555937,-12.535560895100001,12.926591872,-1.0518724853999994,-10.842201710000001,11.193193434799998,-0.8704150687000001,-10.9569476138,13.085771560000001,-1.5859912103,-12.6324848173,13.6595020304,-2.4634325867,-10.806556892100001,12.160234451200001,1.6127392115999999,-12.6144184112,13.885576247,Walking
8.812213946100002,-51.519083355,-77.99465751299999,11.186259507599999,40.99465606,70.81602935999999,0.0610687243000001,-30.434352493000006,-77.64122123,18.9893130065,33.20687084,69.594655502,-1.6320611840999995,13.212214187500006,-12.496948245000004,16.3916026476,-0.9938923778000006,34.192367461,-19.459542188900002,4.034350779199997,71.86717490699999,11.806107044000003,-44.5488553505,-27.56412259,-4.833587780499999,7.584732318400002,95.649618717,-5.274045767999999,-42.6015275297,-80.19312868,-5.0413135143000005,-11.0226214413,13.5237598434,1.350776297,-12.6063615803,12.697832108299998,-4.61895008,-12.876381206100001,13.297929762699999,0.29804199039999996,-12.046058845200001,12.634111404999999,-4.081840864,-11.6739888195,12.1675586701,0.07318843010000008,-11.911049080400002,12.696855545999998,0.018256774199999916,-12.685951614700002,13.771074294999996,-1.1868214071999998,-10.836098003600002,13.045000076000003,2.0812450616,-12.441078472000001,12.7635059347,-3.0720751593999998,-10.4039692872,13.584795,Walking
9.4488550428,29.9603047133,61.096182198600005,-9.540457987499998,-37.6389308911,-75.71450423400002,6.178625989900001,27.424426981499995,77.39923620660002,-19.524427402999997,-3.380152704599998,14.771755208000005,23.1320612185,-32.5297708506,10.163357829999997,1.7908396851,12.954962253600002,70.84351172059999,16.0526715752,-47.748855973000005,-42.247328568,-0.4480915781,35.254961234899994,85.7244292389,0.3335877087,-39.634351916,-81.427481847,7.841984784599999,29.561832309500005,57.4526726724,2.0590282320999997,-11.5101703644,12.727373122299998,-3.6631395702,-11.924477004500002,11.6521778098,0.2428661554,-11.6944965361,13.12068367,-3.4946825788,-11.9029925342,13.5476856232,0.5968700736999999,-12.1503068912,13.089433668999998,-0.08794435840000023,-12.878822707200001,13.3201465609,-1.4827197581999998,-10.699135113,13.107744217999999,1.7138134152,-11.6947406779,12.8914356223,-4.1404345577,-10.964027785999999,12.498369216399999,0.7841259597999999,-12.846107865500002,13.196367262999999,Walking
-3.0763358486000003,-16.703053567199998,-75.87099270000002,16.775572237600002,17.4007629874,72.22061018779999,-2.6732823911,9.082443475399998,5.686260219999999,17.334351134099997,-13.465649413,17.229771512,0.23358777780000003,20.172518777100002,87.26259678630001,-5.119847441900001,-27.5061067098,-78.18396815600002,6.2106870419,28.977862884,54.20916138,-8.6687022681,-13.164885609,-85.779389183,10.7664119568,23.429770850300002,66.6954206411,-7.1358777402,13.4755726603,11.713740922000014,-4.1995165705,-11.1891255384,13.512529374600001,0.3854442775,-11.894691657400003,13.214189528999999,1.5412059575000001,-12.505531596600001,12.871904373000001,-4.3162158014,-10.5177389153,12.966875075299999,1.1022411675,-11.6576313012,12.834306717699999,-5.868217680699999,-10.7023090368,12.3819141409,0.8373485796999999,-12.769935989500002,13.043291091999999,-5.955375868199999,-10.7401509287,13.712724683100001,-2.8687060061,-9.9049458508,13.501787185000001,1.2763133867,-11.4620746618,12.681230545999998,Walking
19.1335877191,-29.461833384999995,6.131296826999991,2.4717556300999997,18.636641553699995,87.46259397050001,-0.370992582200001,-10.100762845999999,-100.230533216,9.082442814399998,28.666412615300004,45.9343505895,-11.035114311200001,-10.763358303999995,-68.88855055500001,23.5091607088,3.5007625697,53.3267177533,-7.261068777700001,3.4083969109999996,61.570227050999996,7.599236965,-31.7007628981,-40.70839844100002,3.1419846412000005,28.3274806496,58.585496186499995,-7.6297711553,-38.887023544,-101.012215434,-5.0359423434,-11.106361770899998,13.0640430466,0.4877391836999999,-12.6703264232,12.911455155000002,-3.981498933,-10.5985492698,10.4707813266,-0.8179248302000002,-10.216713333300001,12.2730274212,-4.8938525315999994,-10.8177875477,12.4373340603,-5.306694322499999,-10.796791550600002,12.0327930453,-3.6443408016,-11.837318802400002,12.6426563264,-4.972221655,-9.6271137238,11.920000075999997,0.8935009361999999,-12.287758065800002,13.583086014,-4.5867235772,-11.1549458502,12.041093824999999,Walking
12.478626108400002,14.076336426400001,59.89618315509999,-12.6358777875,29.063359065999997,17.754198832,11.2053433189,-13.225191641099997,0.5412205220000075,-0.9312977153000002,18.158778476600002,80.6572511861,17.893893314,-24.5526707614,-86.04732895200002,-0.9213739277000004,33.0740456564,52.426718239,0.9419846623000003,-17.329007724,-86.81450425,6.5625957901,26.178625935600003,62.57709928639999,-6.845801592399999,5.975571682999998,27.026717765,16.387786437099997,-20.979389192,-9.67252044600001,-1.5483936101,-9.1854632378,12.779130936,0.3600535692,-12.600746535999999,13.247392654,-6.711479389200001,-11.952797317800002,13.965654372,1.5392528325000001,-12.087562847,12.8523731237,-7.039848566299999,-11.390053082000001,14.599199295,-0.7539599717000001,-10.694740773100001,13.406084060999998,-0.7969286854,-12.760414506300002,12.709550857,-2.9927294711999997,-9.748939991100002,13.1848926541,1.1278759033,-12.048256301999999,13.6499805453,-6.750541922400001,-9.772133254200002,15.900712965999997,Walking
1.2740457852000002,24.440458203000002,78.1595430903,5.8977097399,-39.183969018,-99.93587799000004,13.8534350993,27.0641225336,38.16106889300001,1.8312978508999997,14.230533983,-27.964885730000002,14.180915926599999,-3.3442746637000007,28.254962101900002,-3.8870229011,17.045801602999994,86.4061060396,-4.241985155300002,-49.20839648490001,-93.48320617899999,11.0389312322,23.1190840952,39.7129770429,-39.5465655273,-48.3366402542,-48.789313127,12.0427479983,-10.474809619700002,44.1053434576,0.4855419329999999,-12.611976908800003,13.209794997999998,-5.376762676299999,-8.8002097122,15.2039356237,-2.6323779971000008,-7.556068896600001,10.9446582799,1.0355907887,-12.593422222000001,13.911211014999997,-5.2915575852000005,-7.368568897699999,14.4947071083,0.4464794308,-12.9283829699,12.604570386999999,-5.1399462231,-9.0485007283,12.410234449599999,-0.5474170065,-10.341469382900002,13.147294998000001,0.6027294247999999,-11.648598098799999,12.999101640000001,-3.405082920100001,-6.9599385262,12.640947341799999,Walking
-17.490076697,-12.3679389715,85.8679388907,-8.156488465199997,-54.472519397999996,-83.06717604899998,12.1083971022,30.955725480199998,43.3740449212,-3.1694653503000003,-27.258777710000004,-80.66564902600001,4.090840281599999,12.009160950599997,44.367938822300005,-4.8984733984,6.103052756099999,68.821373169,-5.052671814799998,-7.251908782000001,-88.85038165200002,6.970992399899998,21.597709988699997,35.1312978527,15.694656818500002,15.384732033299997,-56.290075681999994,11.6480914114,-12.303817136,38.287786674,0.23554197240000002,-12.526039313800002,13.291826248000001,-3.3804248511000003,-10.4999166491,12.174882889,-0.9204639044,-10.3824851027,12.564287183999998,0.6896435192999999,-10.4425433167,12.489580153299999,-2.9607471169000004,-12.554359627200002,12.234941483099998,0.20160643069999998,-10.910072804200002,13.005449295,-2.8828662586,-10.776527883,12.0037403117,-0.27819082530000006,-10.7828756334,12.6783008582,-2.1440967199000003,-12.288978957800001,13.4021778106,-2.7515184697999997,-12.0614398004,12.691484450699999,Walking
14.155725097500001,47.755723953300006,84.448854452,12.792366577199996,-11.5847331258,-107.835877988,11.950381661300002,22.6557252765,41.385496331,6.673282338000002,24.8839694538,-33.264886483,5.6969464301,27.719084549800005,14.335878565000002,5.4190842624,29.127480741999996,71.861070067,-6.614503812699999,-22.181678961000006,-65.65267372199999,6.8908397436,41.299999751,91.906871424,-1.8709926123999985,-45.8625956528,-89.83740311100001,15.619847494699997,14.961069298000002,68.664122773,0.7360302352,-10.054359914299999,13.077959060999998,-5.148735294300001,-10.926186084000001,14.777910232,-1.1331104279000002,-10.1351702684,13.373613357,-2.7632372555000004,-11.311928272800001,11.8103809353,-0.010307605200000004,-11.5441059115,12.015703202600001,-3.3210985365000005,-11.066322803900002,13.896806717099997,-4.4558641766000004,-10.864418507600002,12.925127030599999,1.3244090825000001,-11.1920551308,11.931718825599999,-4.487602496399999,-12.256019878700002,12.4837207804,0.10468263020000004,-12.2714008337,13.424150466,Walking
